subject,version,assignmentId,trial,practice,opt1_id,opt2_id,attributes,opt1_values,opt2_values,choice,orig_choice,rt,stamp,id
60fd6ed24d3d9325c1a4ccb0,ma_choice_v4_movies_pilot2,60fd6ed24d3d9325c1a4ccb0,0,1,-1,-1,"Drama,Science Fiction,Funny,Romantic,Suspense,Art,Fantasy World,Action,Violent","73,24,16,3,62,79,34,66,68","11,47,56,39,18,14,61,18,13",1,,12899,2022-06-24 12:56:42,150581
60fd6ed24d3d9325c1a4ccb0,ma_choice_v4_movies_pilot2,60fd6ed24d3d9325c1a4ccb0,1,1,-1,-1,"Suspense,Violent,Funny,Action,Drama,Art,Fantasy World,Romantic,Science Fiction","19,39,1,6,80,65,34,0,17","90,3,30,79,22,13,65,25,87",1,,12392,2022-06-24 12:56:55,150582
60fd6ed24d3d9325c1a4ccb0,ma_choice_v4_movies_pilot2,60fd6ed24d3d9325c1a4ccb0,2,1,-1,-1,"Violent,Science Fiction,Funny,Art,Action,Fantasy World,Romantic,Drama,Suspense","3,51,80,8,27,55,35,12,12","26,22,1,74,3,34,9,84,48",0,,8164,2022-06-24 12:57:05,150583
60fd6ed24d3d9325c1a4ccb0,ma_choice_v4_movies_pilot2,60fd6ed24d3d9325c1a4ccb0,3,1,-1,-1,"Action,Funny,Suspense,Violent,Fantasy World,Romantic,Science Fiction,Drama,Art","83,47,78,78,54,21,47,61,69","20,3,2,1,31,99,15,21,11",0,,12309,2022-06-24 12:57:18,150584
60fd6ed24d3d9325c1a4ccb0,ma_choice_v4_movies_pilot2,60fd6ed24d3d9325c1a4ccb0,4,1,-1,-1,"Violent,Suspense,Drama,Romantic,Art,Action,Science Fiction,Funny,Fantasy World","30,24,21,37,36,34,45,73,46","3,2,65,14,70,3,20,0,25",0,,7842,2022-06-24 12:57:27,150585
5bd47734506cd3000101d181,ma_choice_v4_movies_pilot2,5bd47734506cd3000101d181,0,1,-1,-1,"Drama,Art,Funny,Science Fiction,Suspense,Action,Violent,Romantic,Fantasy World","12,8,80,51,12,27,3,35,55","84,74,1,22,48,3,26,9,34",0,,11485,2022-06-24 12:57:29,150586
60fd6ed24d3d9325c1a4ccb0,ma_choice_v4_movies_pilot2,60fd6ed24d3d9325c1a4ccb0,5,1,-1,-1,"Art,Violent,Fantasy World,Drama,Suspense,Action,Science Fiction,Romantic,Funny","38,2,19,47,87,33,14,52,12","4,32,41,5,1,3,43,1,52",0,,10213,2022-06-24 12:57:38,150587
5bd47734506cd3000101d181,ma_choice_v4_movies_pilot2,5bd47734506cd3000101d181,1,1,-1,-1,"Science Fiction,Suspense,Romantic,Art,Action,Funny,Drama,Fantasy World,Violent","43,1,1,4,3,52,5,41,32","14,87,52,38,33,12,47,19,2",1,,10708,2022-06-24 12:57:41,150588
60fd6ed24d3d9325c1a4ccb0,ma_choice_v4_movies_pilot2,60fd6ed24d3d9325c1a4ccb0,6,1,-1,-1,"Drama,Violent,Action,Science Fiction,Suspense,Romantic,Funny,Art,Fantasy World","14,37,24,48,31,41,65,10,46","51,1,3,18,3,15,5,99,26",0,,10341,2022-06-24 12:57:49,150589
5bd47734506cd3000101d181,ma_choice_v4_movies_pilot2,5bd47734506cd3000101d181,2,1,-1,-1,"Funny,Suspense,Violent,Science Fiction,Art,Romantic,Drama,Fantasy World,Action","73,24,30,45,36,37,21,46,34","0,2,3,20,70,14,65,25,3",1,,8957,2022-06-24 12:57:51,150590
60fd6ed24d3d9325c1a4ccb0,ma_choice_v4_movies_pilot2,60fd6ed24d3d9325c1a4ccb0,7,1,-1,-1,"Violent,Romantic,Funny,Drama,Art,Fantasy World,Suspense,Action,Science Fiction","13,0,9,4,66,57,0,11,8","57,41,35,78,42,23,80,69,37",1,,8304,2022-06-24 12:57:59,150591
5bd47734506cd3000101d181,ma_choice_v4_movies_pilot2,5bd47734506cd3000101d181,3,1,-1,-1,"Fantasy World,Art,Suspense,Science Fiction,Action,Violent,Funny,Romantic,Drama","66,23,20,51,56,27,64,21,39","39,58,54,30,34,5,1,75,61",0,,9630,2022-06-24 12:58:01,150592
60fd6ed24d3d9325c1a4ccb0,ma_choice_v4_movies_pilot2,60fd6ed24d3d9325c1a4ccb0,8,1,-1,-1,"Romantic,Suspense,Action,Violent,Science Fiction,Drama,Art,Fantasy World,Funny","75,54,34,5,30,61,58,39,1","21,20,56,27,51,39,23,66,64",1,,8801,2022-06-24 12:58:09,150593
5bd47734506cd3000101d181,ma_choice_v4_movies_pilot2,5bd47734506cd3000101d181,4,1,-1,-1,"Violent,Drama,Science Fiction,Fantasy World,Romantic,Suspense,Funny,Action,Art","13,11,47,61,39,18,56,18,14","68,73,24,34,3,62,16,66,79",1,,10469,2022-06-24 12:58:13,150594
60fd6ed24d3d9325c1a4ccb0,ma_choice_v4_movies_pilot2,60fd6ed24d3d9325c1a4ccb0,9,1,-1,-1,"Science Fiction,Violent,Fantasy World,Funny,Romantic,Art,Suspense,Action,Drama","22,28,75,16,78,50,10,15,78","47,74,40,61,18,24,69,36,15",0,,8658,2022-06-24 12:58:18,150595
5bd47734506cd3000101d181,ma_choice_v4_movies_pilot2,5bd47734506cd3000101d181,5,1,-1,-1,"Romantic,Science Fiction,Violent,Suspense,Funny,Art,Drama,Fantasy World,Action","99,15,1,2,3,11,21,31,20","21,47,78,78,47,69,61,54,83",1,,10046,2022-06-24 12:58:24,150596
5bd47734506cd3000101d181,ma_choice_v4_movies_pilot2,5bd47734506cd3000101d181,6,1,-1,-1,"Suspense,Fantasy World,Violent,Romantic,Art,Action,Science Fiction,Drama,Funny","19,34,39,0,65,6,17,80,1","90,65,3,25,13,79,87,22,30",1,,13542,2022-06-24 12:58:38,150597
60fd6ed24d3d9325c1a4ccb0,ma_choice_v4_movies_pilot2,60fd6ed24d3d9325c1a4ccb0,0,0,-1,-1,"Funny,Science Fiction,Art,Suspense,Romantic,Violent,Fantasy World,Drama,Action","0,26,79,76,17,50,45,79,3","38,5,2,8,87,2,78,21,55",1,,8094,2022-06-24 12:58:46,150598
5bd47734506cd3000101d181,ma_choice_v4_movies_pilot2,5bd47734506cd3000101d181,7,1,-1,-1,"Violent,Art,Action,Romantic,Fantasy World,Drama,Funny,Suspense,Science Fiction","74,24,36,18,40,15,61,69,47","28,50,15,78,75,78,16,10,22",0,,7823,2022-06-24 12:58:47,150599
60fd6ed24d3d9325c1a4ccb0,ma_choice_v4_movies_pilot2,60fd6ed24d3d9325c1a4ccb0,1,0,-1,-1,"Romantic,Fantasy World,Action,Suspense,Funny,Drama,Violent,Science Fiction,Art","13,47,78,73,35,30,62,35,21","83,27,6,7,0,86,10,5,57",1,,7671,2022-06-24 12:58:55,150600
5bd47734506cd3000101d181,ma_choice_v4_movies_pilot2,5bd47734506cd3000101d181,8,1,-1,-1,"Violent,Action,Science Fiction,Romantic,Suspense,Fantasy World,Funny,Drama,Art","1,3,18,15,3,26,5,51,99","37,24,48,41,31,46,65,14,10",1,,7364,2022-06-24 12:58:56,150601
60fd6ed24d3d9325c1a4ccb0,ma_choice_v4_movies_pilot2,60fd6ed24d3d9325c1a4ccb0,2,0,-1,-1,"Violent,Romantic,Fantasy World,Science Fiction,Suspense,Drama,Action,Funny,Art","88,5,59,30,69,82,26,5,38","23,37,16,2,11,16,5,83,12",1,,7758,2022-06-24 12:59:04,150602
5bd47734506cd3000101d181,ma_choice_v4_movies_pilot2,5bd47734506cd3000101d181,9,1,-1,-1,"Suspense,Science Fiction,Funny,Romantic,Art,Violent,Action,Fantasy World,Drama","0,8,9,0,66,13,11,57,4","80,37,35,41,42,57,69,23,78",0,,8858,2022-06-24 12:59:05,150603
60fd6ed24d3d9325c1a4ccb0,ma_choice_v4_movies_pilot2,60fd6ed24d3d9325c1a4ccb0,3,0,-1,-1,"Romantic,Action,Fantasy World,Drama,Art,Violent,Suspense,Science Fiction,Funny","3,92,66,21,5,70,14,52,45","23,7,41,78,43,2,80,8,10",1,,7744,2022-06-24 12:59:12,150604
60fd6ed24d3d9325c1a4ccb0,ma_choice_v4_movies_pilot2,60fd6ed24d3d9325c1a4ccb0,4,0,-1,-1,"Suspense,Art,Action,Science Fiction,Violent,Fantasy World,Romantic,Funny,Drama","31,46,75,100,22,54,0,24,51","6,-1,19,27,1,28,26,1,72",1,,10650,2022-06-24 12:59:24,150605
60fd6ed24d3d9325c1a4ccb0,ma_choice_v4_movies_pilot2,60fd6ed24d3d9325c1a4ccb0,5,0,-1,-1,"Drama,Funny,Action,Art,Violent,Fantasy World,Suspense,Science Fiction,Romantic","17,73,64,18,17,34,19,68,4","76,6,11,69,77,58,77,16,82",1,,8131,2022-06-24 12:59:33,150606
60fd6ed24d3d9325c1a4ccb0,ma_choice_v4_movies_pilot2,60fd6ed24d3d9325c1a4ccb0,6,0,-1,-1,"Suspense,Violent,Funny,Art,Action,Drama,Fantasy World,Science Fiction,Romantic","1,73,25,71,61,26,30,42,0","58,1,1,24,28,63,51,20,31",1,,7656,2022-06-24 12:59:42,150607
60fd6ed24d3d9325c1a4ccb0,ma_choice_v4_movies_pilot2,60fd6ed24d3d9325c1a4ccb0,7,0,-1,-1,"Science Fiction,Action,Romantic,Art,Violent,Drama,Fantasy World,Funny,Suspense","28,11,30,94,18,56,66,4,12","77,92,50,26,81,76,37,66,76",1,,7763,2022-06-24 12:59:51,150608
60fd6ed24d3d9325c1a4ccb0,ma_choice_v4_movies_pilot2,60fd6ed24d3d9325c1a4ccb0,8,0,-1,-1,"Drama,Action,Violent,Science Fiction,Fantasy World,Funny,Romantic,Art,Suspense","72,5,69,0,35,0,13,91,53","22,35,1,36,67,20,36,20,5",1,,7567,2022-06-24 12:59:59,150609
60fd6ed24d3d9325c1a4ccb0,ma_choice_v4_movies_pilot2,60fd6ed24d3d9325c1a4ccb0,9,0,-1,-1,"Suspense,Romantic,Fantasy World,Drama,Art,Science Fiction,Violent,Funny,Action","4,0,75,6,12,100,5,12,41","25,21,45,70,100,32,33,53,15",1,,7567,2022-06-24 13:00:08,150610
60fd6ed24d3d9325c1a4ccb0,ma_choice_v4_movies_pilot2,60fd6ed24d3d9325c1a4ccb0,10,0,-1,-1,"Action,Fantasy World,Suspense,Funny,Romantic,Drama,Science Fiction,Violent,Art","71,60,19,45,86,14,29,14,16","13,34,80,6,14,62,1,68,65",0,,8037,2022-06-24 13:00:17,150611
60fd6ed24d3d9325c1a4ccb0,ma_choice_v4_movies_pilot2,60fd6ed24d3d9325c1a4ccb0,11,0,-1,-1,"Action,Art,Fantasy World,Science Fiction,Suspense,Funny,Romantic,Drama,Violent","37,6,58,45,12,53,38,15,5","5,27,37,14,48,14,11,79,66",0,,17539,2022-06-24 13:00:35,150612
5bd47734506cd3000101d181,ma_choice_v4_movies_pilot2,5bd47734506cd3000101d181,0,0,-1,-1,"Drama,Funny,Violent,Science Fiction,Action,Fantasy World,Suspense,Romantic,Art","7,1,32,35,79,39,56,8,8","76,23,1,10,14,14,19,70,30",0,,65995,2022-06-24 13:00:37,150613
60fd6ed24d3d9325c1a4ccb0,ma_choice_v4_movies_pilot2,60fd6ed24d3d9325c1a4ccb0,12,0,-1,-1,"Suspense,Art,Funny,Fantasy World,Drama,Science Fiction,Action,Violent,Romantic","9,15,66,83,11,14,19,13,78","73,49,14,46,79,70,62,87,15",0,,7527,2022-06-24 13:00:44,150614
60fd6ed24d3d9325c1a4ccb0,ma_choice_v4_movies_pilot2,60fd6ed24d3d9325c1a4ccb0,13,0,-1,-1,"Fantasy World,Action,Science Fiction,Suspense,Art,Funny,Romantic,Drama,Violent","55,7,50,31,38,44,5,22,21","12,59,18,2,3,7,33,63,1",1,,7573,2022-06-24 13:00:52,150615
5bd47734506cd3000101d181,ma_choice_v4_movies_pilot2,5bd47734506cd3000101d181,1,0,-1,-1,"Art,Funny,Action,Suspense,Science Fiction,Drama,Violent,Romantic,Fantasy World","44,24,37,12,38,18,22,26,87","2,1,3,81,12,71,2,50,38",0,,20987,2022-06-24 13:00:59,150616
60fd6ed24d3d9325c1a4ccb0,ma_choice_v4_movies_pilot2,60fd6ed24d3d9325c1a4ccb0,14,0,-1,-1,"Drama,Art,Fantasy World,Suspense,Violent,Action,Romantic,Science Fiction,Funny","15,10,65,55,12,92,25,7,52","55,62,40,21,75,5,2,32,1",0,,12191,2022-06-24 13:01:06,150617
5bd47734506cd3000101d181,ma_choice_v4_movies_pilot2,5bd47734506cd3000101d181,2,0,-1,-1,"Funny,Science Fiction,Fantasy World,Art,Violent,Action,Suspense,Drama,Romantic","1,0,13,51,37,7,75,23,0","21,28,43,-1,4,34,5,64,88",0,,7596,2022-06-24 13:01:07,150618
60fd6ed24d3d9325c1a4ccb0,ma_choice_v4_movies_pilot2,60fd6ed24d3d9325c1a4ccb0,15,0,-1,-1,"Violent,Suspense,Fantasy World,Funny,Action,Science Fiction,Drama,Romantic,Art","11,19,50,9,42,81,64,23,29","60,77,26,50,7,22,20,0,7",0,,10697,2022-06-24 13:01:17,150619
5bd47734506cd3000101d181,ma_choice_v4_movies_pilot2,5bd47734506cd3000101d181,3,0,-1,-1,"Violent,Drama,Science Fiction,Suspense,Fantasy World,Action,Art,Funny,Romantic","60,23,8,35,46,91,14,63,72","3,77,44,1,69,2,46,2,14",0,,12720,2022-06-24 13:01:21,150620
60fd6ed24d3d9325c1a4ccb0,ma_choice_v4_movies_pilot2,60fd6ed24d3d9325c1a4ccb0,16,0,-1,-1,"Violent,Art,Action,Suspense,Science Fiction,Fantasy World,Romantic,Drama,Funny","54,23,30,63,37,44,6,15,9","8,55,8,0,1,75,83,71,30",1,,8923,2022-06-24 13:01:27,150621
5bd47734506cd3000101d181,ma_choice_v4_movies_pilot2,5bd47734506cd3000101d181,4,0,-1,-1,"Violent,Fantasy World,Drama,Action,Funny,Romantic,Science Fiction,Art,Suspense","7,38,36,84,43,14,100,36,62","75,62,76,8,9,47,49,84,30",1,,12706,2022-06-24 13:01:35,150622
60fd6ed24d3d9325c1a4ccb0,ma_choice_v4_movies_pilot2,60fd6ed24d3d9325c1a4ccb0,17,0,-1,-1,"Romantic,Funny,Science Fiction,Art,Violent,Drama,Fantasy World,Action,Suspense","37,24,63,72,12,76,29,7,45","5,1,17,13,47,17,65,30,75",0,,14049,2022-06-24 13:01:43,150623
5bd47734506cd3000101d181,ma_choice_v4_movies_pilot2,5bd47734506cd3000101d181,5,0,-1,-1,"Fantasy World,Funny,Action,Art,Science Fiction,Suspense,Romantic,Violent,Drama","67,20,35,20,36,5,36,1,22","35,0,5,91,0,53,13,69,72",1,,9951,2022-06-24 13:01:46,150624
60fd6ed24d3d9325c1a4ccb0,ma_choice_v4_movies_pilot2,60fd6ed24d3d9325c1a4ccb0,18,0,-1,-1,"Action,Fantasy World,Science Fiction,Art,Funny,Violent,Romantic,Suspense,Drama","80,59,28,34,15,51,37,12,8","1,37,52,83,43,7,79,69,32",1,,7897,2022-06-24 13:01:51,150625
60fd6ed24d3d9325c1a4ccb0,ma_choice_v4_movies_pilot2,60fd6ed24d3d9325c1a4ccb0,19,0,-1,-1,"Fantasy World,Art,Suspense,Science Fiction,Violent,Funny,Romantic,Drama,Action","63,47,11,44,1,0,5,73,4","37,14,73,19,57,64,47,36,90",1,,7876,2022-06-24 13:02:00,150626
5bd47734506cd3000101d181,ma_choice_v4_movies_pilot2,5bd47734506cd3000101d181,6,0,-1,-1,"Fantasy World,Funny,Romantic,Suspense,Drama,Violent,Art,Action,Science Fiction","37,63,53,26,67,20,30,25,47","63,1,3,1,6,61,0,49,27",0,,20635,2022-06-24 13:02:07,150627
60fd6ed24d3d9325c1a4ccb0,ma_choice_v4_movies_pilot2,60fd6ed24d3d9325c1a4ccb0,20,0,-1,-1,"Fantasy World,Suspense,Science Fiction,Drama,Romantic,Funny,Violent,Action,Art","62,30,49,76,47,9,75,8,84","38,62,100,36,14,43,7,84,36",0,,7720,2022-06-24 13:02:09,150628
5bd47734506cd3000101d181,ma_choice_v4_movies_pilot2,5bd47734506cd3000101d181,7,0,-1,-1,"Suspense,Drama,Romantic,Science Fiction,Fantasy World,Art,Funny,Action,Violent","26,9,88,34,44,2,3,5,3","73,73,5,82,75,35,35,34,49",1,,9196,2022-06-24 13:02:17,150629
60fd6ed24d3d9325c1a4ccb0,ma_choice_v4_movies_pilot2,60fd6ed24d3d9325c1a4ccb0,21,0,-1,-1,"Violent,Fantasy World,Drama,Suspense,Art,Funny,Action,Romantic,Science Fiction","4,62,86,69,27,52,75,25,58","26,41,20,2,80,0,5,47,18",0,,10152,2022-06-24 13:02:20,150630
5bd47734506cd3000101d181,ma_choice_v4_movies_pilot2,5bd47734506cd3000101d181,8,0,-1,-1,"Romantic,Funny,Suspense,Drama,Fantasy World,Art,Violent,Action,Science Fiction","30,4,12,56,66,94,18,11,28","50,66,76,76,37,26,81,92,77",1,,7675,2022-06-24 13:02:26,150631
60fd6ed24d3d9325c1a4ccb0,ma_choice_v4_movies_pilot2,60fd6ed24d3d9325c1a4ccb0,22,0,-1,-1,"Suspense,Fantasy World,Funny,Romantic,Art,Drama,Violent,Action,Science Fiction","3,28,29,11,90,35,21,3,22","79,51,6,39,22,15,54,87,45",1,,7609,2022-06-24 13:02:29,150632
60fd6ed24d3d9325c1a4ccb0,ma_choice_v4_movies_pilot2,60fd6ed24d3d9325c1a4ccb0,23,0,-1,-1,"Violent,Drama,Art,Science Fiction,Romantic,Fantasy World,Funny,Action,Suspense","23,10,13,22,10,38,66,6,7","1,32,71,48,92,66,6,30,39",1,,7767,2022-06-24 13:02:38,150633
5bd47734506cd3000101d181,ma_choice_v4_movies_pilot2,5bd47734506cd3000101d181,9,0,-1,-1,"Action,Art,Suspense,Violent,Drama,Romantic,Funny,Fantasy World,Science Fiction","15,38,32,71,70,1,1,39,17","78,4,10,15,29,37,52,66,45",1,,10635,2022-06-24 13:02:38,150634
60fd6ed24d3d9325c1a4ccb0,ma_choice_v4_movies_pilot2,60fd6ed24d3d9325c1a4ccb0,24,0,-1,-1,"Violent,Drama,Science Fiction,Funny,Fantasy World,Suspense,Action,Art,Romantic","1,30,15,24,35,3,3,43,5","49,75,36,4,66,89,73,23,37",1,,7607,2022-06-24 13:02:46,150635
60fd6ed24d3d9325c1a4ccb0,ma_choice_v4_movies_pilot2,60fd6ed24d3d9325c1a4ccb0,25,0,-1,-1,"Drama,Romantic,Science Fiction,Funny,Action,Suspense,Art,Fantasy World,Violent","33,0,100,1,75,57,50,37,85","73,49,42,37,18,6,7,91,1",1,,7589,2022-06-24 13:02:55,150636
5bd47734506cd3000101d181,ma_choice_v4_movies_pilot2,5bd47734506cd3000101d181,10,0,-1,-1,"Drama,Violent,Fantasy World,Action,Funny,Art,Science Fiction,Suspense,Romantic","3,43,38,14,1,39,14,64,1","31,22,88,91,71,16,76,16,21",1,,20459,2022-06-24 13:02:59,150637
60fd6ed24d3d9325c1a4ccb0,ma_choice_v4_movies_pilot2,60fd6ed24d3d9325c1a4ccb0,26,0,-1,-1,"Romantic,Science Fiction,Drama,Fantasy World,Art,Violent,Funny,Suspense,Action","51,42,63,61,5,1,11,9,18","15,1,19,37,25,24,48,30,90",0,,7730,2022-06-24 13:03:04,150638
5bd47734506cd3000101d181,ma_choice_v4_movies_pilot2,5bd47734506cd3000101d181,11,0,-1,-1,"Drama,Fantasy World,Funny,Romantic,Science Fiction,Art,Action,Violent,Suspense","91,12,2,17,0,81,11,62,65","3,37,82,42,32,20,90,1,8",1,,11459,2022-06-24 13:03:12,150639
60fd6ed24d3d9325c1a4ccb0,ma_choice_v4_movies_pilot2,60fd6ed24d3d9325c1a4ccb0,27,0,-1,-1,"Art,Funny,Violent,Suspense,Fantasy World,Romantic,Action,Drama,Science Fiction","62,0,10,78,23,27,9,15,2","0,23,54,2,49,4,33,44,22",0,,8244,2022-06-24 13:03:13,150640
5bd47734506cd3000101d181,ma_choice_v4_movies_pilot2,5bd47734506cd3000101d181,12,0,-1,-1,"Suspense,Romantic,Science Fiction,Action,Violent,Art,Drama,Fantasy World,Funny","74,3,79,82,65,8,19,84,5","2,40,20,19,1,34,73,48,25",0,,7465,2022-06-24 13:03:20,150641
60fd6ed24d3d9325c1a4ccb0,ma_choice_v4_movies_pilot2,60fd6ed24d3d9325c1a4ccb0,28,0,-1,-1,"Drama,Violent,Funny,Romantic,Fantasy World,Art,Science Fiction,Suspense,Action","45,1,2,7,35,3,26,73,35","17,31,69,68,64,24,67,24,74",1,,7681,2022-06-24 13:03:21,150642
60fd6ed24d3d9325c1a4ccb0,ma_choice_v4_movies_pilot2,60fd6ed24d3d9325c1a4ccb0,29,0,-1,-1,"Suspense,Funny,Science Fiction,Action,Art,Romantic,Fantasy World,Drama,Violent","76,1,6,12,25,43,67,16,2","15,22,55,80,87,14,40,59,71",0,,8524,2022-06-24 13:03:31,150643
5bd47734506cd3000101d181,ma_choice_v4_movies_pilot2,5bd47734506cd3000101d181,13,0,-1,-1,"Fantasy World,Funny,Art,Drama,Suspense,Science Fiction,Violent,Action,Romantic","45,15,50,51,84,23,71,50,47","81,56,5,76,6,48,15,8,21",0,,11075,2022-06-24 13:03:32,150644
60fd6ed24d3d9325c1a4ccb0,ma_choice_v4_movies_pilot2,60fd6ed24d3d9325c1a4ccb0,30,0,-1,-1,"Fantasy World,Suspense,Science Fiction,Romantic,Art,Violent,Funny,Drama,Action","11,32,13,47,53,41,2,78,3","53,4,90,16,22,2,67,13,24",0,,7838,2022-06-24 13:03:40,150645
5bd47734506cd3000101d181,ma_choice_v4_movies_pilot2,5bd47734506cd3000101d181,14,0,-1,-1,"Violent,Funny,Suspense,Fantasy World,Drama,Science Fiction,Romantic,Art,Action","3,78,19,49,44,41,52,7,7","78,18,49,74,4,100,1,71,89",1,,7333,2022-06-24 13:03:41,150646
60fd6ed24d3d9325c1a4ccb0,ma_choice_v4_movies_pilot2,60fd6ed24d3d9325c1a4ccb0,31,0,-1,-1,"Art,Drama,Romantic,Science Fiction,Suspense,Violent,Funny,Action,Fantasy World","20,3,42,32,8,1,82,90,37","81,91,17,0,65,62,2,11,12",0,,8673,2022-06-24 13:03:50,150647
5bd47734506cd3000101d181,ma_choice_v4_movies_pilot2,5bd47734506cd3000101d181,15,0,-1,-1,"Art,Violent,Science Fiction,Funny,Romantic,Drama,Suspense,Action,Fantasy World","64,3,16,1,1,69,81,14,32","11,32,47,32,22,5,1,48,53",0,,12970,2022-06-24 13:03:55,150648
60fd6ed24d3d9325c1a4ccb0,ma_choice_v4_movies_pilot2,60fd6ed24d3d9325c1a4ccb0,32,0,-1,-1,"Drama,Action,Art,Fantasy World,Romantic,Funny,Science Fiction,Violent,Suspense","5,48,11,53,22,32,47,32,1","69,14,64,32,1,1,16,3,81",0,,7652,2022-06-24 13:03:58,150649
5bd47734506cd3000101d181,ma_choice_v4_movies_pilot2,5bd47734506cd3000101d181,16,0,-1,-1,"Drama,Suspense,Action,Science Fiction,Art,Funny,Fantasy World,Violent,Romantic","75,54,88,46,50,2,46,78,2","22,1,2,26,71,33,24,1,78",0,,9310,2022-06-24 13:04:05,150650
60fd6ed24d3d9325c1a4ccb0,ma_choice_v4_movies_pilot2,60fd6ed24d3d9325c1a4ccb0,33,0,-1,-1,"Suspense,Violent,Science Fiction,Romantic,Action,Fantasy World,Art,Drama,Funny","27,33,56,30,25,71,2,57,82","0,1,30,74,3,29,55,11,13",1,,7603,2022-06-24 13:04:07,150651
5bd47734506cd3000101d181,ma_choice_v4_movies_pilot2,5bd47734506cd3000101d181,17,0,-1,-1,"Art,Fantasy World,Science Fiction,Drama,Action,Romantic,Funny,Violent,Suspense","65,34,1,62,13,14,6,68,80","16,60,29,14,71,86,45,14,19",0,,9131,2022-06-24 13:04:15,150652
60fd6ed24d3d9325c1a4ccb0,ma_choice_v4_movies_pilot2,60fd6ed24d3d9325c1a4ccb0,34,0,-1,-1,"Violent,Science Fiction,Fantasy World,Romantic,Funny,Action,Drama,Suspense,Art","3,41,49,52,78,7,44,19,7","78,100,74,1,18,89,4,49,71",0,,7688,2022-06-24 13:04:16,150653
60fd6ed24d3d9325c1a4ccb0,ma_choice_v4_movies_pilot2,60fd6ed24d3d9325c1a4ccb0,35,0,-1,-1,"Violent,Suspense,Drama,Science Fiction,Romantic,Art,Action,Funny,Fantasy World","1,19,76,10,70,30,14,23,14","32,56,7,35,8,8,79,1,39",0,,7607,2022-06-24 13:04:24,150654
5bd47734506cd3000101d181,ma_choice_v4_movies_pilot2,5bd47734506cd3000101d181,18,0,-1,-1,"Violent,Funny,Romantic,Fantasy World,Action,Science Fiction,Art,Suspense,Drama","29,7,2,41,64,99,18,7,12","1,44,85,17,3,9,46,37,91",1,,9572,2022-06-24 13:04:26,150655
5bd47734506cd3000101d181,ma_choice_v4_movies_pilot2,5bd47734506cd3000101d181,19,0,-1,-1,"Suspense,Fantasy World,Art,Science Fiction,Romantic,Violent,Funny,Drama,Action","1,54,4,25,2,1,29,4,5","64,32,80,52,25,47,72,47,90",1,,12268,2022-06-24 13:04:39,150656
5bd47734506cd3000101d181,ma_choice_v4_movies_pilot2,5bd47734506cd3000101d181,20,0,-1,-1,"Funny,Suspense,Art,Fantasy World,Violent,Science Fiction,Drama,Romantic,Action","10,89,90,46,6,70,68,63,48","76,1,16,74,65,33,14,7,14",0,,7285,2022-06-24 13:04:47,150657
60fd6ed24d3d9325c1a4ccb0,ma_choice_v4_movies_pilot2,60fd6ed24d3d9325c1a4ccb0,36,0,-1,-1,"Funny,Romantic,Fantasy World,Science Fiction,Drama,Action,Art,Suspense,Violent","6,5,24,10,77,10,79,0,2","65,28,46,53,19,68,1,24,31",1,,27324,2022-06-24 13:04:53,150658
5bd47734506cd3000101d181,ma_choice_v4_movies_pilot2,5bd47734506cd3000101d181,21,0,-1,-1,"Action,Science Fiction,Suspense,Fantasy World,Art,Drama,Romantic,Violent,Funny","56,88,11,53,15,4,37,1,37","8,22,48,32,54,63,3,33,2",0,,10636,2022-06-24 13:04:59,150659
60fd6ed24d3d9325c1a4ccb0,ma_choice_v4_movies_pilot2,60fd6ed24d3d9325c1a4ccb0,37,0,-1,-1,"Romantic,Action,Science Fiction,Art,Violent,Drama,Funny,Fantasy World,Suspense","85,3,9,46,1,91,44,17,37","2,64,99,18,29,12,7,41,7",0,,11378,2022-06-24 13:05:05,150660
5bd47734506cd3000101d181,ma_choice_v4_movies_pilot2,5bd47734506cd3000101d181,22,0,-1,-1,"Action,Science Fiction,Drama,Funny,Art,Violent,Romantic,Suspense,Fantasy World","5,71,52,26,17,1,0,61,23","40,0,31,3,42,97,20,9,67",1,,13232,2022-06-24 13:05:13,150661
60fd6ed24d3d9325c1a4ccb0,ma_choice_v4_movies_pilot2,60fd6ed24d3d9325c1a4ccb0,38,0,-1,-1,"Romantic,Action,Funny,Drama,Fantasy World,Science Fiction,Suspense,Art,Violent","14,2,2,77,69,44,1,46,3","72,91,63,23,46,8,35,14,60",1,,7781,2022-06-24 13:05:14,150662
60fd6ed24d3d9325c1a4ccb0,ma_choice_v4_movies_pilot2,60fd6ed24d3d9325c1a4ccb0,39,0,-1,-1,"Romantic,Drama,Funny,Science Fiction,Violent,Action,Suspense,Art,Fantasy World","23,76,6,27,53,3,28,69,56","2,12,72,7,1,27,7,3,35",0,,7523,2022-06-24 13:05:22,150663
5bd47734506cd3000101d181,ma_choice_v4_movies_pilot2,5bd47734506cd3000101d181,23,0,-1,-1,"Drama,Violent,Fantasy World,Action,Funny,Suspense,Science Fiction,Art,Romantic","73,30,46,2,60,26,19,60,74","5,2,75,28,9,2,41,15,9",0,,10870,2022-06-24 13:05:25,150664
60fd6ed24d3d9325c1a4ccb0,ma_choice_v4_movies_pilot2,60fd6ed24d3d9325c1a4ccb0,40,0,-1,-1,"Violent,Romantic,Funny,Fantasy World,Art,Drama,Action,Science Fiction,Suspense","70,2,70,84,18,68,3,79,0","15,22,1,41,74,26,32,24,27",1,,7748,2022-06-24 13:05:31,150665
5bd47734506cd3000101d181,ma_choice_v4_movies_pilot2,5bd47734506cd3000101d181,24,0,-1,-1,"Violent,Funny,Fantasy World,Art,Romantic,Action,Suspense,Science Fiction,Drama","4,70,40,37,95,11,45,39,48","29,9,92,5,40,74,21,14,7",0,,8116,2022-06-24 13:05:34,150666
5bd47734506cd3000101d181,ma_choice_v4_movies_pilot2,5bd47734506cd3000101d181,25,0,-1,-1,"Romantic,Violent,Action,Drama,Science Fiction,Funny,Art,Suspense,Fantasy World","13,62,78,30,35,35,21,73,47","83,10,6,86,5,0,57,7,27",0,,9160,2022-06-24 13:05:44,150667
5bd47734506cd3000101d181,ma_choice_v4_movies_pilot2,5bd47734506cd3000101d181,26,0,-1,-1,"Action,Violent,Science Fiction,Funny,Suspense,Art,Drama,Fantasy World,Romantic","12,16,3,17,20,3,69,49,41","91,76,99,43,46,31,34,76,10",1,,10722,2022-06-24 13:05:56,150668
60fd6ed24d3d9325c1a4ccb0,ma_choice_v4_movies_pilot2,60fd6ed24d3d9325c1a4ccb0,41,0,-1,-1,"Romantic,Art,Action,Fantasy World,Science Fiction,Suspense,Violent,Drama,Funny","0,89,2,15,5,40,40,65,0","89,18,23,46,29,8,4,9,66",1,,26566,2022-06-24 13:05:59,150669
5bd47734506cd3000101d181,ma_choice_v4_movies_pilot2,5bd47734506cd3000101d181,27,0,-1,-1,"Action,Suspense,Funny,Science Fiction,Drama,Violent,Art,Fantasy World,Romantic","22,57,4,58,13,79,57,79,13","74,21,48,29,62,1,36,25,43",1,,13054,2022-06-24 13:06:10,150670
5bd47734506cd3000101d181,ma_choice_v4_movies_pilot2,5bd47734506cd3000101d181,28,0,-1,-1,"Funny,Romantic,Violent,Action,Science Fiction,Art,Drama,Fantasy World,Suspense","22,14,71,80,55,87,59,40,15","1,43,2,12,6,25,16,67,76",0,,7431,2022-06-24 13:06:18,150671
60fd6ed24d3d9325c1a4ccb0,ma_choice_v4_movies_pilot2,60fd6ed24d3d9325c1a4ccb0,42,0,-1,-1,"Science Fiction,Romantic,Action,Drama,Art,Fantasy World,Funny,Suspense,Violent","14,10,89,64,69,26,6,71,79","40,31,20,14,14,47,80,20,15",1,,23058,2022-06-24 13:06:23,150672
5bd47734506cd3000101d181,ma_choice_v4_movies_pilot2,5bd47734506cd3000101d181,29,0,-1,-1,"Science Fiction,Suspense,Romantic,Violent,Funny,Drama,Action,Fantasy World,Art","25,40,80,1,22,71,35,53,14","1,11,0,35,1,8,6,30,88",0,,9129,2022-06-24 13:06:29,150673
60fd6ed24d3d9325c1a4ccb0,ma_choice_v4_movies_pilot2,60fd6ed24d3d9325c1a4ccb0,43,0,-1,-1,"Funny,Action,Suspense,Romantic,Fantasy World,Science Fiction,Violent,Drama,Art","1,3,81,50,38,12,2,71,2","24,37,12,26,87,38,22,18,44",0,,8082,2022-06-24 13:06:32,150674
60fd6ed24d3d9325c1a4ccb0,ma_choice_v4_movies_pilot2,60fd6ed24d3d9325c1a4ccb0,44,0,-1,-1,"Romantic,Funny,Fantasy World,Action,Science Fiction,Art,Drama,Suspense,Violent","40,9,92,74,14,5,7,21,29","95,70,40,11,39,37,48,45,4",1,,8036,2022-06-24 13:06:41,150675
5bd47734506cd3000101d181,ma_choice_v4_movies_pilot2,5bd47734506cd3000101d181,30,0,-1,-1,"Violent,Suspense,Funny,Drama,Fantasy World,Science Fiction,Action,Art,Romantic","39,71,7,73,20,9,23,45,28","6,5,66,10,57,35,2,2,5",0,,12360,2022-06-24 13:06:42,150676
60fd6ed24d3d9325c1a4ccb0,ma_choice_v4_movies_pilot2,60fd6ed24d3d9325c1a4ccb0,45,0,-1,-1,"Art,Fantasy World,Violent,Science Fiction,Suspense,Funny,Romantic,Action,Drama","54,41,1,35,1,37,3,32,2","87,18,77,0,23,6,78,4,54",1,,8362,2022-06-24 13:06:50,150677
5bd47734506cd3000101d181,ma_choice_v4_movies_pilot2,5bd47734506cd3000101d181,31,0,-1,-1,"Violent,Action,Science Fiction,Drama,Romantic,Fantasy World,Art,Funny,Suspense","88,26,30,82,5,59,38,5,69","23,5,2,16,37,16,12,83,11",0,,11479,2022-06-24 13:06:54,150678
60fd6ed24d3d9325c1a4ccb0,ma_choice_v4_movies_pilot2,60fd6ed24d3d9325c1a4ccb0,46,0,-1,-1,"Suspense,Science Fiction,Action,Funny,Violent,Art,Romantic,Drama,Fantasy World","26,34,5,3,3,2,88,9,44","73,82,34,35,49,35,5,73,75",0,,12597,2022-06-24 13:07:04,150679
5bd47734506cd3000101d181,ma_choice_v4_movies_pilot2,5bd47734506cd3000101d181,32,0,-1,-1,"Suspense,Fantasy World,Art,Violent,Romantic,Action,Science Fiction,Drama,Funny","82,40,18,2,31,45,21,27,7","61,76,69,26,5,9,42,58,88",1,,15260,2022-06-24 13:07:11,150680
60fd6ed24d3d9325c1a4ccb0,ma_choice_v4_movies_pilot2,60fd6ed24d3d9325c1a4ccb0,47,0,-1,-1,"Action,Fantasy World,Romantic,Drama,Suspense,Funny,Art,Violent,Science Fiction","55,69,5,79,57,1,11,83,60","10,46,83,7,4,69,31,13,30",1,,14465,2022-06-24 13:07:19,150681
5bd47734506cd3000101d181,ma_choice_v4_movies_pilot2,5bd47734506cd3000101d181,33,0,-1,-1,"Art,Suspense,Action,Fantasy World,Drama,Science Fiction,Romantic,Funny,Violent","31,1,51,66,30,39,27,61,30","7,71,14,36,4,99,0,1,2",0,,15910,2022-06-24 13:07:28,150682
5bd47734506cd3000101d181,ma_choice_v4_movies_pilot2,5bd47734506cd3000101d181,34,0,-1,-1,"Suspense,Fantasy World,Funny,Drama,Art,Action,Science Fiction,Violent,Romantic","21,40,1,55,62,5,32,75,2","55,65,52,15,10,92,7,12,25",0,,11202,2022-06-24 13:07:40,150683
60fd6ed24d3d9325c1a4ccb0,ma_choice_v4_movies_pilot2,60fd6ed24d3d9325c1a4ccb0,48,0,-1,-1,"Suspense,Drama,Science Fiction,Romantic,Art,Funny,Action,Violent,Fantasy World","14,77,25,0,70,49,3,14,63","77,19,89,20,9,11,35,44,41",1,,23119,2022-06-24 13:07:43,150684
60fd6ed24d3d9325c1a4ccb0,ma_choice_v4_movies_pilot2,60fd6ed24d3d9325c1a4ccb0,49,0,-1,-1,"Suspense,Fantasy World,Action,Violent,Science Fiction,Funny,Drama,Art,Romantic","75,13,7,37,0,1,23,51,0","5,43,34,4,28,21,64,-1,88",1,,10499,2022-06-24 13:07:55,150685
5bd47734506cd3000101d181,ma_choice_v4_movies_pilot2,5bd47734506cd3000101d181,35,0,-1,-1,"Romantic,Drama,Science Fiction,Art,Suspense,Violent,Action,Funny,Fantasy World","83,7,30,31,4,13,10,69,46","5,79,60,11,57,83,55,1,69",1,,18571,2022-06-24 13:07:59,150686
60fd6ed24d3d9325c1a4ccb0,ma_choice_v4_movies_pilot2,60fd6ed24d3d9325c1a4ccb0,50,0,-1,-1,"Romantic,Art,Science Fiction,Suspense,Action,Funny,Violent,Drama,Fantasy World","2,50,46,54,88,2,78,75,46","78,71,26,1,2,33,1,22,24",1,,12405,2022-06-24 13:08:08,150687
60fd6ed24d3d9325c1a4ccb0,ma_choice_v4_movies_pilot2,60fd6ed24d3d9325c1a4ccb0,51,0,-1,-1,"Suspense,Funny,Romantic,Science Fiction,Fantasy World,Violent,Action,Drama,Art","70,1,11,10,34,36,81,26,61","2,58,70,33,56,1,22,5,7",1,,14780,2022-06-24 13:08:24,150688
5bd47734506cd3000101d181,ma_choice_v4_movies_pilot2,5bd47734506cd3000101d181,36,0,-1,-1,"Action,Science Fiction,Art,Suspense,Drama,Violent,Romantic,Fantasy World,Funny","7,26,0,11,74,1,44,51,21","87,58,33,39,11,46,4,76,57",1,,53531,2022-06-24 13:08:54,150689
60fd6ed24d3d9325c1a4ccb0,ma_choice_v4_movies_pilot2,60fd6ed24d3d9325c1a4ccb0,52,0,-1,-1,"Action,Violent,Drama,Funny,Fantasy World,Suspense,Romantic,Science Fiction,Art","2,30,73,60,46,26,74,19,60","28,2,5,9,75,2,9,41,15",0,,35664,2022-06-24 13:09:01,150690
5bd47734506cd3000101d181,ma_choice_v4_movies_pilot2,5bd47734506cd3000101d181,37,0,-1,-1,"Science Fiction,Art,Suspense,Fantasy World,Funny,Romantic,Drama,Action,Violent","45,26,15,67,51,42,26,21,1","19,2,45,36,1,9,73,63,29",0,,12594,2022-06-24 13:09:08,150691
60fd6ed24d3d9325c1a4ccb0,ma_choice_v4_movies_pilot2,60fd6ed24d3d9325c1a4ccb0,53,0,-1,-1,"Action,Science Fiction,Romantic,Drama,Violent,Suspense,Art,Fantasy World,Funny","74,29,43,62,1,21,36,25,48","22,58,13,13,79,57,57,79,4",0,,8193,2022-06-24 13:09:10,150692
5bd47734506cd3000101d181,ma_choice_v4_movies_pilot2,5bd47734506cd3000101d181,38,0,-1,-1,"Action,Funny,Suspense,Violent,Drama,Science Fiction,Fantasy World,Art,Romantic","3,35,1,4,17,28,60,85,0","35,5,54,52,72,50,39,18,51",1,,8415,2022-06-24 13:09:17,150693
5bd47734506cd3000101d181,ma_choice_v4_movies_pilot2,5bd47734506cd3000101d181,39,0,-1,-1,"Action,Drama,Science Fiction,Violent,Art,Suspense,Funny,Fantasy World,Romantic","31,79,30,26,2,84,1,31,47","7,22,4,1,33,5,33,68,73",0,,9108,2022-06-24 13:09:27,150694
60fd6ed24d3d9325c1a4ccb0,ma_choice_v4_movies_pilot2,60fd6ed24d3d9325c1a4ccb0,54,0,-1,-1,"Science Fiction,Romantic,Funny,Art,Suspense,Violent,Action,Drama,Fantasy World","27,52,3,28,49,100,23,74,42","57,15,62,2,12,3,56,9,65",0,,28602,2022-06-24 13:09:40,150695
5bd47734506cd3000101d181,ma_choice_v4_movies_pilot2,5bd47734506cd3000101d181,40,0,-1,-1,"Funny,Violent,Suspense,Science Fiction,Action,Art,Fantasy World,Romantic,Drama","2,76,77,100,12,33,24,22,44","63,16,30,36,39,9,45,72,7",0,,13081,2022-06-24 13:09:41,150696
60fd6ed24d3d9325c1a4ccb0,ma_choice_v4_movies_pilot2,60fd6ed24d3d9325c1a4ccb0,55,0,-1,-1,"Violent,Suspense,Art,Funny,Romantic,Science Fiction,Drama,Fantasy World,Action","6,89,90,10,63,70,68,46,48","65,1,16,76,7,33,14,74,14",0,,7726,2022-06-24 13:09:48,150697
60fd6ed24d3d9325c1a4ccb0,ma_choice_v4_movies_pilot2,60fd6ed24d3d9325c1a4ccb0,56,0,-1,-1,"Art,Suspense,Romantic,Funny,Action,Fantasy World,Violent,Drama,Science Fiction","31,46,10,43,91,76,76,34,99","3,20,41,17,12,49,16,69,3",1,,7569,2022-06-24 13:09:57,150698
60fd6ed24d3d9325c1a4ccb0,ma_choice_v4_movies_pilot2,60fd6ed24d3d9325c1a4ccb0,57,0,-1,-1,"Funny,Fantasy World,Action,Science Fiction,Violent,Romantic,Art,Drama,Suspense","63,37,25,47,20,53,30,67,26","1,63,49,27,61,3,0,6,1",0,,7644,2022-06-24 13:10:06,150699
5bd47734506cd3000101d181,ma_choice_v4_movies_pilot2,5bd47734506cd3000101d181,41,0,-1,-1,"Romantic,Fantasy World,Drama,Suspense,Funny,Science Fiction,Violent,Art,Action","27,81,48,61,85,80,25,64,42","6,41,6,4,44,45,1,23,13",0,,24073,2022-06-24 13:10:06,150700
60fd6ed24d3d9325c1a4ccb0,ma_choice_v4_movies_pilot2,60fd6ed24d3d9325c1a4ccb0,58,0,-1,-1,"Action,Suspense,Romantic,Fantasy World,Violent,Drama,Funny,Art,Science Fiction","36,83,0,74,70,72,7,55,100","12,14,87,33,1,42,67,6,24",1,,8888,2022-06-24 13:10:16,150701
5bd47734506cd3000101d181,ma_choice_v4_movies_pilot2,5bd47734506cd3000101d181,42,0,-1,-1,"Romantic,Science Fiction,Suspense,Action,Funny,Violent,Drama,Art,Fantasy World","21,32,25,15,53,33,70,100,45","0,100,4,41,12,5,6,12,75",0,,8725,2022-06-24 13:10:16,150702
5bd47734506cd3000101d181,ma_choice_v4_movies_pilot2,5bd47734506cd3000101d181,43,0,-1,-1,"Action,Drama,Funny,Romantic,Suspense,Science Fiction,Violent,Art,Fantasy World","35,45,2,7,73,26,1,3,35","74,17,69,68,24,67,31,24,64",1,,16181,2022-06-24 13:10:33,150703
60fd6ed24d3d9325c1a4ccb0,ma_choice_v4_movies_pilot2,60fd6ed24d3d9325c1a4ccb0,59,0,-1,-1,"Art,Funny,Violent,Science Fiction,Romantic,Fantasy World,Drama,Action,Suspense","8,5,65,79,3,84,19,82,74","34,25,1,20,40,48,73,19,2",1,,28685,2022-06-24 13:10:45,150704
60fd6ed24d3d9325c1a4ccb0,ma_choice_v4_movies_pilot2,60fd6ed24d3d9325c1a4ccb0,60,0,-1,-1,"Suspense,Drama,Art,Action,Fantasy World,Science Fiction,Romantic,Violent,Funny","78,12,19,71,79,46,24,15,23","6,42,79,8,34,4,3,74,1",0,,9052,2022-06-24 13:10:55,150705
5bd47734506cd3000101d181,ma_choice_v4_movies_pilot2,5bd47734506cd3000101d181,44,0,-1,-1,"Suspense,Drama,Funny,Action,Fantasy World,Science Fiction,Romantic,Violent,Art","57,33,1,75,37,100,0,85,50","6,73,37,18,91,42,49,1,7",0,,58152,2022-06-24 13:11:32,150706
60fd6ed24d3d9325c1a4ccb0,ma_choice_v4_movies_pilot2,60fd6ed24d3d9325c1a4ccb0,61,0,-1,-1,"Violent,Suspense,Art,Action,Funny,Science Fiction,Romantic,Drama,Fantasy World","1,15,26,21,51,45,42,26,67","29,45,2,63,1,19,9,73,36",0,,56655,2022-06-24 13:11:53,150707
60fd6ed24d3d9325c1a4ccb0,ma_choice_v4_movies_pilot2,60fd6ed24d3d9325c1a4ccb0,62,0,-1,-1,"Action,Drama,Science Fiction,Fantasy World,Romantic,Violent,Suspense,Funny,Art","24,20,49,47,16,39,26,4,81","2,65,23,17,88,1,3,57,20",1,,7636,2022-06-24 13:12:02,150708
5bd47734506cd3000101d181,ma_choice_v4_movies_pilot2,5bd47734506cd3000101d181,45,0,-1,-1,"Violent,Romantic,Suspense,Fantasy World,Funny,Drama,Action,Science Fiction,Art","2,16,4,53,67,13,24,90,22","41,47,32,11,2,78,3,13,53",0,,36215,2022-06-24 13:12:10,150709
60fd6ed24d3d9325c1a4ccb0,ma_choice_v4_movies_pilot2,60fd6ed24d3d9325c1a4ccb0,63,0,-1,-1,"Science Fiction,Art,Funny,Fantasy World,Drama,Romantic,Suspense,Action,Violent","100,33,2,24,44,22,77,12,76","36,9,63,45,7,72,30,39,16",1,,9479,2022-06-24 13:12:12,150710
5bd47734506cd3000101d181,ma_choice_v4_movies_pilot2,5bd47734506cd3000101d181,46,0,-1,-1,"Romantic,Action,Drama,Funny,Violent,Art,Fantasy World,Science Fiction,Suspense","0,7,20,50,60,7,26,22,77","23,42,64,9,11,29,50,81,19",0,,12282,2022-06-24 13:12:23,150711
60fd6ed24d3d9325c1a4ccb0,ma_choice_v4_movies_pilot2,60fd6ed24d3d9325c1a4ccb0,64,0,-1,-1,"Romantic,Action,Drama,Violent,Suspense,Funny,Fantasy World,Art,Science Fiction","7,32,75,68,76,2,41,80,63","63,8,18,1,1,22,68,9,38",1,,9965,2022-06-24 13:12:23,150712
5bd47734506cd3000101d181,ma_choice_v4_movies_pilot2,5bd47734506cd3000101d181,47,0,-1,-1,"Funny,Violent,Fantasy World,Drama,Action,Art,Romantic,Suspense,Science Fiction","66,1,55,40,17,22,65,10,40","4,45,31,20,84,-1,3,43,3",1,,14721,2022-06-24 13:12:39,150713
60fd6ed24d3d9325c1a4ccb0,ma_choice_v4_movies_pilot2,60fd6ed24d3d9325c1a4ccb0,65,0,-1,-1,"Fantasy World,Suspense,Funny,Violent,Art,Science Fiction,Action,Romantic,Drama","30,11,1,35,88,1,6,0,8","53,40,22,1,14,25,35,80,71",1,,14685,2022-06-24 13:12:39,150714
5bd47734506cd3000101d181,ma_choice_v4_movies_pilot2,5bd47734506cd3000101d181,48,0,-1,-1,"Fantasy World,Art,Funny,Suspense,Violent,Action,Science Fiction,Drama,Romantic","38,32,60,18,26,43,17,42,3","62,1,6,54,1,21,38,11,42",0,,7373,2022-06-24 13:12:47,150715
60fd6ed24d3d9325c1a4ccb0,ma_choice_v4_movies_pilot2,60fd6ed24d3d9325c1a4ccb0,66,0,-1,-1,"Romantic,Science Fiction,Drama,Funny,Action,Suspense,Violent,Art,Fantasy World","5,1,19,3,11,12,55,82,40","60,41,73,32,41,50,6,6,18",1,,13518,2022-06-24 13:12:53,150716
5bd47734506cd3000101d181,ma_choice_v4_movies_pilot2,5bd47734506cd3000101d181,49,0,-1,-1,"Science Fiction,Drama,Art,Romantic,Action,Suspense,Violent,Fantasy World,Funny","15,30,43,5,3,3,1,35,24","36,75,23,37,73,89,49,66,4",1,,7976,2022-06-24 13:12:56,150717
60fd6ed24d3d9325c1a4ccb0,ma_choice_v4_movies_pilot2,60fd6ed24d3d9325c1a4ccb0,67,0,-1,-1,"Fantasy World,Suspense,Action,Drama,Romantic,Violent,Science Fiction,Funny,Art","73,29,4,20,55,20,26,8,34","50,78,56,50,12,78,83,40,8",0,,7838,2022-06-24 13:13:02,150718
5bd47734506cd3000101d181,ma_choice_v4_movies_pilot2,5bd47734506cd3000101d181,50,0,-1,-1,"Suspense,Action,Funny,Violent,Fantasy World,Romantic,Science Fiction,Drama,Art","30,90,48,24,37,15,1,19,25","9,18,11,1,61,51,42,63,5",1,,10824,2022-06-24 13:13:08,150719
5bd47734506cd3000101d181,ma_choice_v4_movies_pilot2,5bd47734506cd3000101d181,51,0,-1,-1,"Drama,Art,Suspense,Fantasy World,Action,Science Fiction,Romantic,Funny,Violent","17,13,75,65,30,17,5,1,47","76,72,45,29,7,63,37,24,12",0,,10299,2022-06-24 13:13:19,150720
5bd47734506cd3000101d181,ma_choice_v4_movies_pilot2,5bd47734506cd3000101d181,52,0,-1,-1,"Action,Violent,Suspense,Fantasy World,Science Fiction,Art,Funny,Romantic,Drama","32,15,27,41,24,74,1,22,26","3,70,0,84,79,18,70,2,68",1,,10675,2022-06-24 13:13:31,150721
60fd6ed24d3d9325c1a4ccb0,ma_choice_v4_movies_pilot2,60fd6ed24d3d9325c1a4ccb0,68,0,-1,-1,"Fantasy World,Funny,Violent,Science Fiction,Action,Drama,Romantic,Art,Suspense","49,13,73,38,59,72,56,41,79","15,81,8,3,7,10,19,7,6",0,,28546,2022-06-24 13:13:32,150722
5bd47734506cd3000101d181,ma_choice_v4_movies_pilot2,5bd47734506cd3000101d181,53,0,-1,-1,"Science Fiction,Funny,Fantasy World,Romantic,Suspense,Violent,Art,Drama,Action","25,5,45,24,13,1,44,9,60","0,60,24,76,55,29,71,85,18",1,,25424,2022-06-24 13:13:57,150723
5bd47734506cd3000101d181,ma_choice_v4_movies_pilot2,5bd47734506cd3000101d181,54,0,-1,-1,"Fantasy World,Funny,Art,Science Fiction,Drama,Suspense,Action,Romantic,Violent","37,43,83,52,32,69,1,79,7","59,15,34,28,8,12,80,37,51",0,,9528,2022-06-24 13:14:08,150724
60fd6ed24d3d9325c1a4ccb0,ma_choice_v4_movies_pilot2,60fd6ed24d3d9325c1a4ccb0,69,0,-1,-1,"Suspense,Romantic,Action,Funny,Art,Violent,Fantasy World,Drama,Science Fiction","39,4,87,57,33,46,76,11,58","11,44,7,21,0,1,51,74,26",1,,44342,2022-06-24 13:14:17,150725
5bd47734506cd3000101d181,ma_choice_v4_movies_pilot2,5bd47734506cd3000101d181,55,0,-1,-1,"Suspense,Science Fiction,Romantic,Fantasy World,Art,Action,Funny,Drama,Violent","2,22,4,49,0,33,23,44,54","78,2,27,23,62,9,0,15,10",0,,9205,2022-06-24 13:14:18,150726
60fd6ed24d3d9325c1a4ccb0,ma_choice_v4_movies_pilot2,60fd6ed24d3d9325c1a4ccb0,70,0,-1,-1,"Suspense,Art,Fantasy World,Funny,Action,Violent,Romantic,Drama,Science Fiction","1,9,69,11,5,1,46,42,30","35,75,44,47,81,75,0,6,51",0,,9094,2022-06-24 13:14:27,150727
60fd6ed24d3d9325c1a4ccb0,ma_choice_v4_movies_pilot2,60fd6ed24d3d9325c1a4ccb0,71,0,-1,-1,"Fantasy World,Action,Suspense,Funny,Drama,Art,Violent,Romantic,Science Fiction","23,5,61,26,52,17,1,0,71","67,40,9,3,31,42,97,20,0",1,,8599,2022-06-24 13:14:37,150728
60fd6ed24d3d9325c1a4ccb0,ma_choice_v4_movies_pilot2,60fd6ed24d3d9325c1a4ccb0,72,0,-1,-1,"Funny,Romantic,Science Fiction,Suspense,Fantasy World,Drama,Violent,Art,Action","60,76,0,55,24,85,29,71,18","5,24,25,13,45,9,1,44,60",0,,9049,2022-06-24 13:14:47,150729
5bd47734506cd3000101d181,ma_choice_v4_movies_pilot2,5bd47734506cd3000101d181,56,0,-1,-1,"Drama,Science Fiction,Funny,Romantic,Art,Violent,Action,Fantasy World,Suspense","10,86,75,0,8,21,57,80,9","74,15,1,26,65,1,3,31,53",0,,28964,2022-06-24 13:14:48,150730
60fd6ed24d3d9325c1a4ccb0,ma_choice_v4_movies_pilot2,60fd6ed24d3d9325c1a4ccb0,73,0,-1,-1,"Suspense,Art,Science Fiction,Action,Romantic,Funny,Violent,Fantasy World,Drama","49,15,13,57,32,33,38,60,68","73,84,41,84,70,7,16,24,23",1,,7761,2022-06-24 13:14:56,150731
60fd6ed24d3d9325c1a4ccb0,ma_choice_v4_movies_pilot2,60fd6ed24d3d9325c1a4ccb0,74,0,-1,-1,"Drama,Fantasy World,Romantic,Action,Violent,Art,Funny,Suspense,Science Fiction","10,80,0,57,21,8,75,9,86","74,31,26,3,1,65,1,53,15",1,,7659,2022-06-24 13:15:04,150732
5bd47734506cd3000101d181,ma_choice_v4_movies_pilot2,5bd47734506cd3000101d181,57,0,-1,-1,"Funny,Suspense,Drama,Violent,Science Fiction,Action,Romantic,Art,Fantasy World","6,23,54,77,0,4,78,87,18","37,1,2,1,35,32,3,54,41",0,,18229,2022-06-24 13:15:07,150733
60fd6ed24d3d9325c1a4ccb0,ma_choice_v4_movies_pilot2,60fd6ed24d3d9325c1a4ccb0,75,0,-1,-1,"Fantasy World,Violent,Suspense,Drama,Action,Science Fiction,Funny,Art,Romantic","42,4,11,65,51,72,75,10,39","63,75,35,5,9,40,1,95,7",0,,10895,2022-06-24 13:15:16,150734
60fd6ed24d3d9325c1a4ccb0,ma_choice_v4_movies_pilot2,60fd6ed24d3d9325c1a4ccb0,76,0,-1,-1,"Funny,Action,Drama,Suspense,Fantasy World,Violent,Science Fiction,Art,Romantic","66,23,28,33,58,13,46,22,52","1,2,56,0,29,34,1,94,2",0,,8484,2022-06-24 13:15:26,150735
5bd47734506cd3000101d181,ma_choice_v4_movies_pilot2,5bd47734506cd3000101d181,58,0,-1,-1,"Drama,Science Fiction,Funny,Action,Suspense,Romantic,Art,Fantasy World,Violent","11,14,66,19,9,78,15,83,13","79,70,14,62,73,15,49,46,87",1,,21058,2022-06-24 13:15:29,150736
60fd6ed24d3d9325c1a4ccb0,ma_choice_v4_movies_pilot2,60fd6ed24d3d9325c1a4ccb0,77,0,-1,-1,"Suspense,Action,Funny,Violent,Fantasy World,Science Fiction,Drama,Romantic,Art","68,78,47,5,43,100,28,88,33","20,4,8,27,66,32,51,23,100",0,,7748,2022-06-24 13:15:35,150737
5bd47734506cd3000101d181,ma_choice_v4_movies_pilot2,5bd47734506cd3000101d181,59,0,-1,-1,"Action,Art,Violent,Fantasy World,Funny,Science Fiction,Drama,Romantic,Suspense","84,84,16,24,7,41,23,70,73","57,15,38,60,33,13,68,32,49",0,,26975,2022-06-24 13:15:57,150738
5bd47734506cd3000101d181,ma_choice_v4_movies_pilot2,5bd47734506cd3000101d181,60,0,-1,-1,"Funny,Fantasy World,Art,Action,Drama,Science Fiction,Violent,Romantic,Suspense","38,78,2,55,21,5,2,87,8","0,45,79,3,79,26,50,17,76",1,,9442,2022-06-24 13:16:08,150739
60fd6ed24d3d9325c1a4ccb0,ma_choice_v4_movies_pilot2,60fd6ed24d3d9325c1a4ccb0,78,0,-1,-1,"Action,Science Fiction,Romantic,Drama,Fantasy World,Funny,Art,Suspense,Violent","30,7,3,47,39,30,79,48,9","6,34,48,77,59,2,27,2,73",1,,37567,2022-06-24 13:16:13,150740
60fd6ed24d3d9325c1a4ccb0,ma_choice_v4_movies_pilot2,60fd6ed24d3d9325c1a4ccb0,79,0,-1,-1,"Fantasy World,Suspense,Art,Drama,Funny,Science Fiction,Romantic,Action,Violent","20,71,45,73,7,9,28,23,39","57,5,2,10,66,35,5,2,6",0,,7936,2022-06-24 13:16:22,150741
60fd6ed24d3d9325c1a4ccb0,ma_choice_v4_movies_pilot2,60fd6ed24d3d9325c1a4ccb0,80,0,-1,-1,"Action,Romantic,Violent,Science Fiction,Fantasy World,Drama,Suspense,Funny,Art","45,31,2,21,40,27,82,7,18","9,5,26,42,76,58,61,88,69",0,,12627,2022-06-24 13:16:36,150742
5bd47734506cd3000101d181,ma_choice_v4_movies_pilot2,5bd47734506cd3000101d181,61,0,-1,-1,"Art,Action,Funny,Fantasy World,Science Fiction,Suspense,Drama,Romantic,Violent","6,12,67,33,24,14,42,87,1","55,36,7,74,100,83,72,0,70",1,,29335,2022-06-24 13:16:38,150743
60fd6ed24d3d9325c1a4ccb0,ma_choice_v4_movies_pilot2,60fd6ed24d3d9325c1a4ccb0,81,0,-1,-1,"Funny,Art,Fantasy World,Violent,Drama,Science Fiction,Action,Suspense,Romantic","1,38,39,71,70,17,15,32,1","52,4,66,15,29,45,78,10,37",1,,15997,2022-06-24 13:16:53,150744
5bd47734506cd3000101d181,ma_choice_v4_movies_pilot2,5bd47734506cd3000101d181,62,0,-1,-1,"Drama,Action,Romantic,Fantasy World,Funny,Art,Violent,Science Fiction,Suspense","26,81,11,34,1,61,36,10,70","5,22,70,56,58,7,1,33,2",1,,29714,2022-06-24 13:17:09,150745
5bd47734506cd3000101d181,ma_choice_v4_movies_pilot2,5bd47734506cd3000101d181,63,0,-1,-1,"Fantasy World,Violent,Drama,Funny,Science Fiction,Action,Art,Suspense,Romantic","43,5,28,47,100,78,33,68,88","66,27,51,8,32,4,100,20,23",0,,8678,2022-06-24 13:17:18,150746
5bd47734506cd3000101d181,ma_choice_v4_movies_pilot2,5bd47734506cd3000101d181,64,0,-1,-1,"Art,Science Fiction,Action,Violent,Funny,Suspense,Romantic,Fantasy World,Drama","27,14,5,66,14,48,11,37,79","6,45,37,5,53,12,38,58,15",0,,7904,2022-06-24 13:17:27,150747
5bd47734506cd3000101d181,ma_choice_v4_movies_pilot2,5bd47734506cd3000101d181,65,0,-1,-1,"Fantasy World,Action,Art,Violent,Drama,Funny,Suspense,Science Fiction,Romantic","17,2,20,1,65,57,3,23,88","47,24,81,39,20,4,26,49,16",1,,9606,2022-06-24 13:17:38,150748
5bd47734506cd3000101d181,ma_choice_v4_movies_pilot2,5bd47734506cd3000101d181,66,0,-1,-1,"Art,Violent,Romantic,Drama,Fantasy World,Science Fiction,Suspense,Funny,Action","9,44,20,19,41,89,77,11,35","70,14,0,77,63,25,14,49,3",0,,8968,2022-06-24 13:17:48,150749
5bd47734506cd3000101d181,ma_choice_v4_movies_pilot2,5bd47734506cd3000101d181,67,0,-1,-1,"Suspense,Funny,Drama,Fantasy World,Romantic,Science Fiction,Art,Violent,Action","78,23,12,79,24,46,19,15,71","6,1,42,34,3,4,79,74,8",0,,8087,2022-06-24 13:17:57,150750
60fd6ed24d3d9325c1a4ccb0,ma_choice_v4_movies_pilot2,60fd6ed24d3d9325c1a4ccb0,82,0,-1,-1,"Romantic,Drama,Violent,Suspense,Action,Fantasy World,Funny,Science Fiction,Art","3,41,1,0,2,49,1,28,10","44,64,27,21,23,100,21,1,76",1,,68101,2022-06-24 13:18:02,150751
5bd47734506cd3000101d181,ma_choice_v4_movies_pilot2,5bd47734506cd3000101d181,68,0,-1,-1,"Action,Science Fiction,Art,Funny,Fantasy World,Drama,Romantic,Violent,Suspense","5,39,9,17,60,12,2,57,25","41,17,42,54,35,78,54,10,53",1,,8783,2022-06-24 13:18:07,150752
60fd6ed24d3d9325c1a4ccb0,ma_choice_v4_movies_pilot2,60fd6ed24d3d9325c1a4ccb0,83,0,-1,-1,"Art,Funny,Drama,Violent,Suspense,Romantic,Science Fiction,Fantasy World,Action","36,28,31,66,46,10,64,50,77","72,4,71,1,17,59,19,29,7",1,,8739,2022-06-24 13:18:12,150753
5bd47734506cd3000101d181,ma_choice_v4_movies_pilot2,5bd47734506cd3000101d181,69,0,-1,-1,"Suspense,Romantic,Fantasy World,Art,Action,Drama,Science Fiction,Funny,Violent","1,46,69,9,5,42,30,11,1","35,0,44,75,81,6,51,47,75",1,,23875,2022-06-24 13:18:32,150754
5bd47734506cd3000101d181,ma_choice_v4_movies_pilot2,5bd47734506cd3000101d181,70,0,-1,-1,"Suspense,Fantasy World,Drama,Violent,Romantic,Funny,Action,Art,Science Fiction","31,54,51,22,0,24,75,46,100","6,28,72,1,26,1,19,-1,27",0,,32613,2022-06-24 13:19:05,150755
5bd47734506cd3000101d181,ma_choice_v4_movies_pilot2,5bd47734506cd3000101d181,71,0,-1,-1,"Action,Funny,Science Fiction,Fantasy World,Violent,Art,Romantic,Suspense,Drama","51,75,72,42,4,10,39,11,65","9,1,40,63,75,95,7,35,5",1,,15452,2022-06-24 13:19:22,150756
60fd6ed24d3d9325c1a4ccb0,ma_choice_v4_movies_pilot2,60fd6ed24d3d9325c1a4ccb0,84,0,-1,-1,"Art,Suspense,Drama,Fantasy World,Romantic,Action,Violent,Science Fiction,Funny","61,42,64,23,15,10,12,8,5","13,11,22,76,43,33,35,73,41",1,,87553,2022-06-24 13:19:40,150757
60fd6ed24d3d9325c1a4ccb0,ma_choice_v4_movies_pilot2,60fd6ed24d3d9325c1a4ccb0,85,0,-1,-1,"Science Fiction,Violent,Art,Suspense,Funny,Romantic,Drama,Action,Fantasy World","30,26,2,84,1,47,79,31,31","4,1,33,5,33,73,22,7,68",1,,8584,2022-06-24 13:19:50,150758
60fd6ed24d3d9325c1a4ccb0,ma_choice_v4_movies_pilot2,60fd6ed24d3d9325c1a4ccb0,86,0,-1,-1,"Fantasy World,Violent,Science Fiction,Romantic,Art,Suspense,Action,Drama,Funny","41,1,45,6,23,4,13,6,44","81,25,80,27,64,61,42,48,85",1,,11558,2022-06-24 13:20:02,150759
5bd47734506cd3000101d181,ma_choice_v4_movies_pilot2,5bd47734506cd3000101d181,72,0,-1,-1,"Violent,Funny,Suspense,Fantasy World,Drama,Science Fiction,Action,Art,Romantic","1,7,2,12,63,18,59,3,33","21,44,31,55,22,50,7,38,5",1,,44914,2022-06-24 13:20:08,150760
5bd47734506cd3000101d181,ma_choice_v4_movies_pilot2,5bd47734506cd3000101d181,73,0,-1,-1,"Fantasy World,Art,Romantic,Action,Suspense,Science Fiction,Drama,Funny,Violent","35,26,24,56,88,15,40,24,68","67,0,1,18,8,39,9,58,48",0,,24995,2022-06-24 13:20:34,150761
60fd6ed24d3d9325c1a4ccb0,ma_choice_v4_movies_pilot2,60fd6ed24d3d9325c1a4ccb0,87,0,-1,-1,"Action,Suspense,Funny,Art,Fantasy World,Drama,Romantic,Violent,Science Fiction","35,54,5,18,39,72,51,52,50","3,1,35,85,60,17,0,4,28",0,,30545,2022-06-24 13:20:34,150762
5bd47734506cd3000101d181,ma_choice_v4_movies_pilot2,5bd47734506cd3000101d181,74,0,-1,-1,"Action,Romantic,Violent,Fantasy World,Funny,Art,Science Fiction,Drama,Suspense","33,43,35,76,41,13,73,22,11","10,15,12,23,5,61,8,64,42",0,,17434,2022-06-24 13:20:52,150763
5bd47734506cd3000101d181,ma_choice_v4_movies_pilot2,5bd47734506cd3000101d181,75,0,-1,-1,"Suspense,Funny,Art,Science Fiction,Violent,Fantasy World,Drama,Romantic,Action","6,81,7,3,8,15,10,19,7","79,13,41,38,73,49,72,56,59",1,,7383,2022-06-24 13:21:01,150764
60fd6ed24d3d9325c1a4ccb0,ma_choice_v4_movies_pilot2,60fd6ed24d3d9325c1a4ccb0,88,0,-1,-1,"Violent,Art,Suspense,Funny,Romantic,Drama,Action,Science Fiction,Fantasy World","13,3,42,55,45,16,44,45,34","34,45,0,2,15,39,14,25,61",0,,31787,2022-06-24 13:21:07,150765
5bd47734506cd3000101d181,ma_choice_v4_movies_pilot2,5bd47734506cd3000101d181,76,0,-1,-1,"Science Fiction,Suspense,Action,Fantasy World,Funny,Drama,Violent,Art,Romantic","5,40,2,15,0,65,40,89,0","29,8,23,46,66,9,4,18,89",0,,7402,2022-06-24 13:21:09,150766
5bd47734506cd3000101d181,ma_choice_v4_movies_pilot2,5bd47734506cd3000101d181,77,0,-1,-1,"Violent,Action,Art,Science Fiction,Suspense,Fantasy World,Romantic,Funny,Drama","57,90,14,19,73,37,47,64,36","1,4,47,44,11,63,5,0,73",0,,21166,2022-06-24 13:21:31,150767
60fd6ed24d3d9325c1a4ccb0,ma_choice_v4_movies_pilot2,60fd6ed24d3d9325c1a4ccb0,89,0,-1,-1,"Funny,Romantic,Art,Drama,Fantasy World,Science Fiction,Action,Violent,Suspense","28,77,7,58,39,36,44,30,54","8,9,79,10,93,11,5,2,0",0,,25147,2022-06-24 13:21:33,150768
60fd6ed24d3d9325c1a4ccb0,ma_choice_v4_movies_pilot2,60fd6ed24d3d9325c1a4ccb0,90,0,-1,-1,"Drama,Romantic,Funny,Violent,Art,Action,Science Fiction,Fantasy World,Suspense","31,21,71,22,16,91,76,88,16","3,1,1,43,39,14,14,38,64",0,,7877,2022-06-24 13:21:42,150769
5bd47734506cd3000101d181,ma_choice_v4_movies_pilot2,5bd47734506cd3000101d181,78,0,-1,-1,"Funny,Action,Drama,Suspense,Science Fiction,Romantic,Fantasy World,Art,Violent","73,64,17,19,68,4,34,18,17","6,11,76,77,16,82,58,69,77",1,,22755,2022-06-24 13:21:55,150770
60fd6ed24d3d9325c1a4ccb0,ma_choice_v4_movies_pilot2,60fd6ed24d3d9325c1a4ccb0,91,0,-1,-1,"Violent,Suspense,Funny,Art,Science Fiction,Action,Drama,Romantic,Fantasy World","47,64,72,80,52,90,47,25,32","1,1,29,4,25,5,4,2,54",0,,16211,2022-06-24 13:21:59,150771
5bd47734506cd3000101d181,ma_choice_v4_movies_pilot2,5bd47734506cd3000101d181,79,0,-1,-1,"Romantic,Fantasy World,Suspense,Art,Science Fiction,Drama,Action,Funny,Violent","48,59,2,27,34,77,6,2,73","3,39,48,79,7,47,30,30,9",1,,18351,2022-06-24 13:22:14,150772
60fd6ed24d3d9325c1a4ccb0,ma_choice_v4_movies_pilot2,60fd6ed24d3d9325c1a4ccb0,92,0,-1,-1,"Drama,Suspense,Romantic,Fantasy World,Funny,Science Fiction,Action,Art,Violent","78,53,54,35,54,17,41,42,10","12,25,2,60,17,39,5,9,57",0,,18737,2022-06-24 13:22:19,150773
5bd47734506cd3000101d181,ma_choice_v4_movies_pilot2,5bd47734506cd3000101d181,80,0,-1,-1,"Violent,Action,Romantic,Suspense,Fantasy World,Funny,Science Fiction,Drama,Art","1,7,59,17,29,4,19,71,72","66,77,10,46,50,28,64,31,36",1,,9510,2022-06-24 13:22:25,150774
5bd47734506cd3000101d181,ma_choice_v4_movies_pilot2,5bd47734506cd3000101d181,81,0,-1,-1,"Romantic,Action,Fantasy World,Drama,Funny,Art,Science Fiction,Violent,Suspense","60,41,18,73,32,6,41,6,50","5,11,40,19,3,82,1,55,12",0,,7373,2022-06-24 13:22:33,150775
60fd6ed24d3d9325c1a4ccb0,ma_choice_v4_movies_pilot2,60fd6ed24d3d9325c1a4ccb0,93,0,-1,-1,"Action,Science Fiction,Funny,Romantic,Violent,Art,Suspense,Drama,Fantasy World","50,23,15,47,71,50,84,51,45","8,48,56,21,15,5,6,76,81",0,,20314,2022-06-24 13:22:40,150776
5bd47734506cd3000101d181,ma_choice_v4_movies_pilot2,5bd47734506cd3000101d181,82,0,-1,-1,"Action,Romantic,Suspense,Art,Science Fiction,Drama,Funny,Violent,Fantasy World","5,47,2,80,18,20,0,26,41","75,25,69,27,58,86,52,4,62",1,,10299,2022-06-24 13:22:44,150777
5bd47734506cd3000101d181,ma_choice_v4_movies_pilot2,5bd47734506cd3000101d181,83,0,-1,-1,"Suspense,Violent,Fantasy World,Action,Funny,Romantic,Art,Science Fiction,Drama","0,1,29,3,13,74,55,30,11","27,33,71,25,82,30,2,56,57",1,,8612,2022-06-24 13:22:54,150778
5bd47734506cd3000101d181,ma_choice_v4_movies_pilot2,5bd47734506cd3000101d181,84,0,-1,-1,"Drama,Violent,Art,Suspense,Fantasy World,Romantic,Funny,Science Fiction,Action","56,34,94,0,29,2,1,1,2","28,13,22,33,58,52,66,46,23",1,,7356,2022-06-24 13:23:02,150779
60fd6ed24d3d9325c1a4ccb0,ma_choice_v4_movies_pilot2,60fd6ed24d3d9325c1a4ccb0,94,0,-1,-1,"Art,Drama,Fantasy World,Funny,Violent,Romantic,Suspense,Action,Science Fiction","0,9,67,58,48,1,8,18,39","26,40,35,24,68,24,88,56,15",1,,26612,2022-06-24 13:23:08,150780
5bd47734506cd3000101d181,ma_choice_v4_movies_pilot2,5bd47734506cd3000101d181,85,0,-1,-1,"Drama,Romantic,Action,Funny,Fantasy World,Violent,Suspense,Art,Science Fiction","77,5,10,6,24,2,0,79,10","19,28,68,65,46,31,24,1,53",1,,7586,2022-06-24 13:23:11,150781
5bd47734506cd3000101d181,ma_choice_v4_movies_pilot2,5bd47734506cd3000101d181,86,0,-1,-1,"Science Fiction,Funny,Action,Romantic,Fantasy World,Art,Drama,Suspense,Violent","26,8,4,55,73,34,20,29,20","83,40,56,12,50,8,50,78,78",1,,10948,2022-06-24 13:23:23,150782
60fd6ed24d3d9325c1a4ccb0,ma_choice_v4_movies_pilot2,60fd6ed24d3d9325c1a4ccb0,95,0,-1,-1,"Science Fiction,Fantasy World,Action,Suspense,Art,Violent,Funny,Drama,Romantic","99,36,14,71,7,2,1,4,0","39,66,51,1,31,30,61,30,27",1,,16232,2022-06-24 13:23:25,150783
5bd47734506cd3000101d181,ma_choice_v4_movies_pilot2,5bd47734506cd3000101d181,87,0,-1,-1,"Drama,Suspense,Action,Fantasy World,Violent,Romantic,Funny,Science Fiction,Art","9,12,56,65,3,15,62,57,2","74,49,23,42,100,52,3,27,28",1,,10447,2022-06-24 13:23:34,150784
60fd6ed24d3d9325c1a4ccb0,ma_choice_v4_movies_pilot2,60fd6ed24d3d9325c1a4ccb0,96,0,-1,-1,"Fantasy World,Suspense,Funny,Action,Romantic,Art,Science Fiction,Violent,Drama","62,54,6,21,42,1,38,1,11","38,18,60,43,3,32,17,26,42",0,,16668,2022-06-24 13:23:43,150785
5bd47734506cd3000101d181,ma_choice_v4_movies_pilot2,5bd47734506cd3000101d181,88,0,-1,-1,"Drama,Science Fiction,Violent,Funny,Art,Fantasy World,Suspense,Romantic,Action","10,22,23,66,13,38,7,10,6","32,48,1,6,71,66,39,92,30",1,,8283,2022-06-24 13:23:44,150786
5bd47734506cd3000101d181,ma_choice_v4_movies_pilot2,5bd47734506cd3000101d181,89,0,-1,-1,"Funny,Suspense,Fantasy World,Drama,Violent,Romantic,Art,Science Fiction,Action","2,0,61,39,34,15,45,25,14","55,42,34,16,13,45,3,45,44",0,,7394,2022-06-24 13:23:52,150787
60fd6ed24d3d9325c1a4ccb0,ma_choice_v4_movies_pilot2,60fd6ed24d3d9325c1a4ccb0,97,0,-1,-1,"Violent,Science Fiction,Drama,Action,Fantasy World,Funny,Romantic,Art,Suspense","33,22,63,8,32,2,3,54,48","1,88,4,56,53,37,37,15,11",1,,15950,2022-06-24 13:24:00,150788
5bd47734506cd3000101d181,ma_choice_v4_movies_pilot2,5bd47734506cd3000101d181,90,0,-1,-1,"Action,Violent,Art,Drama,Suspense,Fantasy World,Funny,Romantic,Science Fiction","5,2,79,10,0,93,8,9,11","44,30,7,58,54,39,28,77,36",1,,7327,2022-06-24 13:24:00,150789
627eb4500b7330807b6a87f7,ma_choice_v4_movies_pilot2,627eb4500b7330807b6a87f7,0,1,-1,-1,"Fantasy World,Art,Suspense,Drama,Funny,Violent,Action,Science Fiction,Romantic","61,14,18,11,56,13,18,47,39","34,79,62,73,16,68,66,24,3",1,,17920,2022-06-24 13:24:19,150790
60fd6ed24d3d9325c1a4ccb0,ma_choice_v4_movies_pilot2,60fd6ed24d3d9325c1a4ccb0,98,0,-1,-1,"Violent,Drama,Romantic,Funny,Science Fiction,Action,Fantasy World,Art,Suspense","1,40,65,66,40,17,55,22,10","45,20,3,4,3,84,31,-1,43",0,,24257,2022-06-24 13:24:25,150791
627eb4500b7330807b6a87f7,ma_choice_v4_movies_pilot2,627eb4500b7330807b6a87f7,1,1,-1,-1,"Romantic,Suspense,Funny,Science Fiction,Fantasy World,Action,Drama,Violent,Art","15,3,5,18,26,3,51,1,99","41,31,65,48,46,24,14,37,10",1,,9715,2022-06-24 13:24:30,150792
60fd6ed24d3d9325c1a4ccb0,ma_choice_v4_movies_pilot2,60fd6ed24d3d9325c1a4ccb0,99,0,-1,-1,"Science Fiction,Romantic,Art,Funny,Violent,Suspense,Fantasy World,Action,Drama","8,34,54,6,60,57,22,11,78","35,4,6,65,1,8,58,37,7",0,,7862,2022-06-24 13:24:34,150793
627eb4500b7330807b6a87f7,ma_choice_v4_movies_pilot2,627eb4500b7330807b6a87f7,2,1,-1,-1,"Suspense,Funny,Romantic,Action,Violent,Fantasy World,Art,Science Fiction,Drama","48,1,9,3,26,34,74,22,84","12,80,35,27,3,55,8,51,12",0,,7961,2022-06-24 13:24:39,150794
627eb4500b7330807b6a87f7,ma_choice_v4_movies_pilot2,627eb4500b7330807b6a87f7,3,1,-1,-1,"Action,Art,Science Fiction,Drama,Violent,Romantic,Funny,Fantasy World,Suspense","83,69,47,61,78,21,47,54,78","20,11,15,21,1,99,3,31,2",0,,7625,2022-06-24 13:24:47,150795
5bd47734506cd3000101d181,ma_choice_v4_movies_pilot2,5bd47734506cd3000101d181,91,0,-1,-1,"Romantic,Fantasy World,Art,Violent,Action,Funny,Drama,Suspense,Science Fiction","34,22,54,60,11,6,78,57,8","4,58,6,1,37,65,7,8,35",0,,55592,2022-06-24 13:24:57,150796
627eb4500b7330807b6a87f7,ma_choice_v4_movies_pilot2,627eb4500b7330807b6a87f7,4,1,-1,-1,"Action,Art,Suspense,Fantasy World,Drama,Funny,Violent,Romantic,Science Fiction","34,58,54,39,61,1,5,75,30","56,23,20,66,39,64,27,21,51",1,,9216,2022-06-24 13:24:57,150797
627eb4500b7330807b6a87f7,ma_choice_v4_movies_pilot2,627eb4500b7330807b6a87f7,5,1,-1,-1,"Fantasy World,Violent,Science Fiction,Art,Drama,Funny,Suspense,Action,Romantic","46,30,45,36,21,73,24,34,37","25,3,20,70,65,0,2,3,14",0,,7819,2022-06-24 13:25:06,150798
627eb4500b7330807b6a87f7,ma_choice_v4_movies_pilot2,627eb4500b7330807b6a87f7,6,1,-1,-1,"Violent,Drama,Romantic,Fantasy World,Science Fiction,Action,Art,Funny,Suspense","57,78,41,23,37,69,42,35,80","13,4,0,57,8,11,66,9,0",0,,16706,2022-06-24 13:25:24,150799
5bd47734506cd3000101d181,ma_choice_v4_movies_pilot2,5bd47734506cd3000101d181,92,0,-1,-1,"Suspense,Science Fiction,Funny,Art,Drama,Fantasy World,Action,Violent,Romantic","1,42,25,71,26,30,61,73,0","58,20,1,24,63,51,28,1,31",0,,38226,2022-06-24 13:25:36,150800
627eb4500b7330807b6a87f7,ma_choice_v4_movies_pilot2,627eb4500b7330807b6a87f7,7,1,-1,-1,"Romantic,Funny,Drama,Action,Science Fiction,Fantasy World,Suspense,Violent,Art","18,61,15,36,47,40,69,74,24","78,16,78,15,22,75,10,28,50",0,,15900,2022-06-24 13:25:41,150801
5bd47734506cd3000101d181,ma_choice_v4_movies_pilot2,5bd47734506cd3000101d181,93,0,-1,-1,"Science Fiction,Funny,Fantasy World,Art,Suspense,Action,Romantic,Drama,Violent","1,21,100,76,21,23,44,64,27","28,1,49,10,0,2,3,41,1",0,,11292,2022-06-24 13:25:49,150802
627eb4500b7330807b6a87f7,ma_choice_v4_movies_pilot2,627eb4500b7330807b6a87f7,8,1,-1,-1,"Funny,Suspense,Violent,Science Fiction,Art,Drama,Romantic,Fantasy World,Action","1,19,39,17,65,80,0,34,6","30,90,3,87,13,22,25,65,79",1,,7518,2022-06-24 13:25:49,150803
627eb4500b7330807b6a87f7,ma_choice_v4_movies_pilot2,627eb4500b7330807b6a87f7,9,1,-1,-1,"Funny,Suspense,Action,Fantasy World,Science Fiction,Violent,Art,Drama,Romantic","52,1,3,41,43,32,4,5,1","12,87,33,19,14,2,38,47,52",1,,14365,2022-06-24 13:26:05,150804
5bd47734506cd3000101d181,ma_choice_v4_movies_pilot2,5bd47734506cd3000101d181,94,0,-1,-1,"Action,Fantasy World,Science Fiction,Violent,Romantic,Suspense,Art,Funny,Drama","3,56,27,53,23,28,69,6,76","27,35,7,1,2,7,3,72,12",0,,19731,2022-06-24 13:26:09,150805
5bd47734506cd3000101d181,ma_choice_v4_movies_pilot2,5bd47734506cd3000101d181,95,0,-1,-1,"Action,Romantic,Suspense,Funny,Violent,Fantasy World,Drama,Art,Science Fiction","7,23,80,10,2,41,78,43,8","92,3,14,45,70,66,21,5,52",1,,16836,2022-06-24 13:26:27,150806
5bd47734506cd3000101d181,ma_choice_v4_movies_pilot2,5bd47734506cd3000101d181,96,0,-1,-1,"Funny,Fantasy World,Science Fiction,Suspense,Drama,Art,Violent,Action,Romantic","30,75,1,0,71,55,8,8,83","9,44,37,63,15,23,54,30,6",0,,7407,2022-06-24 13:26:36,150807
5bd47734506cd3000101d181,ma_choice_v4_movies_pilot2,5bd47734506cd3000101d181,97,0,-1,-1,"Action,Science Fiction,Suspense,Fantasy World,Violent,Romantic,Funny,Art,Drama","3,22,3,28,21,11,29,90,35","87,45,79,51,54,39,6,22,15",1,,7998,2022-06-24 13:26:45,150808
5bd47734506cd3000101d181,ma_choice_v4_movies_pilot2,5bd47734506cd3000101d181,98,0,-1,-1,"Romantic,Violent,Suspense,Science Fiction,Action,Funny,Fantasy World,Art,Drama","31,15,20,40,20,80,47,14,14","10,79,71,14,89,6,26,69,64",0,,7337,2022-06-24 13:26:53,150809
5bd47734506cd3000101d181,ma_choice_v4_movies_pilot2,5bd47734506cd3000101d181,99,0,-1,-1,"Funny,Romantic,Action,Art,Violent,Suspense,Science Fiction,Drama,Fantasy World","2,7,32,80,68,76,63,75,41","22,63,8,9,1,1,38,18,68",0,,8883,2022-06-24 13:27:03,150810
627eb4500b7330807b6a87f7,ma_choice_v4_movies_pilot2,627eb4500b7330807b6a87f7,0,0,-1,-1,"Art,Romantic,Drama,Action,Violent,Fantasy World,Funny,Suspense,Science Fiction","5,21,76,8,15,81,56,6,48","50,47,51,50,71,45,15,84,23",1,,7753,2022-06-24 13:29:23,150811
627eb4500b7330807b6a87f7,ma_choice_v4_movies_pilot2,627eb4500b7330807b6a87f7,1,0,-1,-1,"Action,Violent,Romantic,Fantasy World,Science Fiction,Drama,Suspense,Art,Funny","8,33,3,32,22,63,48,54,2","56,1,37,53,88,4,11,15,37",1,,9211,2022-06-24 13:29:33,150812
627eb4500b7330807b6a87f7,ma_choice_v4_movies_pilot2,627eb4500b7330807b6a87f7,2,0,-1,-1,"Science Fiction,Suspense,Art,Funny,Romantic,Fantasy World,Action,Drama,Violent","99,7,18,7,2,41,64,12,29","9,37,46,44,85,17,3,91,1",1,,9976,2022-06-24 13:29:44,150813
627eb4500b7330807b6a87f7,ma_choice_v4_movies_pilot2,627eb4500b7330807b6a87f7,3,0,-1,-1,"Funny,Romantic,Art,Science Fiction,Action,Drama,Suspense,Violent,Fantasy World","41,43,13,73,33,22,11,35,76","5,15,61,8,10,64,42,12,23",0,,13831,2022-06-24 13:29:58,150814
627eb4500b7330807b6a87f7,ma_choice_v4_movies_pilot2,627eb4500b7330807b6a87f7,4,0,-1,-1,"Action,Romantic,Violent,Suspense,Funny,Science Fiction,Art,Fantasy World,Drama","32,7,68,76,2,63,80,41,75","8,63,1,1,22,38,9,68,18",0,,9995,2022-06-24 13:30:09,150815
627eb4500b7330807b6a87f7,ma_choice_v4_movies_pilot2,627eb4500b7330807b6a87f7,5,0,-1,-1,"Science Fiction,Romantic,Funny,Suspense,Fantasy World,Drama,Action,Art,Violent","100,0,24,31,54,51,75,46,22","27,26,1,6,28,72,19,-1,1",0,,7496,2022-06-24 13:30:18,150816
6156498c17bdcd7cb70c420c,ma_choice_v4_movies_pilot2,6156498c17bdcd7cb70c420c,0,1,-1,-1,"Action,Drama,Science Fiction,Violent,Fantasy World,Romantic,Funny,Suspense,Art","69,78,37,57,23,41,35,80,42","11,4,8,13,57,0,9,0,66",1,,8464,2022-06-24 13:30:20,150817
627eb4500b7330807b6a87f7,ma_choice_v4_movies_pilot2,627eb4500b7330807b6a87f7,6,0,-1,-1,"Funny,Violent,Fantasy World,Romantic,Art,Action,Science Fiction,Suspense,Drama","60,26,38,3,32,43,17,18,42","6,1,62,42,1,21,38,54,11",0,,8867,2022-06-24 13:30:28,150818
6156498c17bdcd7cb70c420c,ma_choice_v4_movies_pilot2,6156498c17bdcd7cb70c420c,1,1,-1,-1,"Action,Suspense,Drama,Fantasy World,Violent,Science Fiction,Romantic,Art,Funny","66,62,73,34,68,24,3,79,16","18,18,11,61,13,47,39,14,56",1,,9574,2022-06-24 13:30:31,150819
627eb4500b7330807b6a87f7,ma_choice_v4_movies_pilot2,627eb4500b7330807b6a87f7,7,0,-1,-1,"Suspense,Action,Art,Violent,Drama,Science Fiction,Romantic,Funny,Fantasy World","13,60,44,1,9,25,24,5,45","55,18,71,29,85,0,76,60,24",0,,12710,2022-06-24 13:30:42,150820
6156498c17bdcd7cb70c420c,ma_choice_v4_movies_pilot2,6156498c17bdcd7cb70c420c,2,1,-1,-1,"Science Fiction,Romantic,Art,Suspense,Fantasy World,Drama,Funny,Action,Violent","17,0,65,19,34,80,1,6,39","87,25,13,90,65,22,30,79,3",1,,10732,2022-06-24 13:30:43,150821
6156498c17bdcd7cb70c420c,ma_choice_v4_movies_pilot2,6156498c17bdcd7cb70c420c,3,1,-1,-1,"Drama,Romantic,Funny,Science Fiction,Fantasy World,Suspense,Action,Violent,Art","21,37,73,45,46,24,34,30,36","65,14,0,20,25,2,3,3,70",0,,7773,2022-06-24 13:30:51,150822
627eb4500b7330807b6a87f7,ma_choice_v4_movies_pilot2,627eb4500b7330807b6a87f7,8,0,-1,-1,"Action,Funny,Romantic,Science Fiction,Drama,Violent,Art,Suspense,Fantasy World","28,9,9,41,5,2,15,2,75","2,60,74,19,73,30,60,26,46",1,,9072,2022-06-24 13:30:52,150823
60fcd2fa241e2b1d59c0c8d8,ma_choice_v4_movies_pilot2,60fcd2fa241e2b1d59c0c8d8,0,1,-1,-1,"Drama,Fantasy World,Romantic,Suspense,Action,Art,Violent,Science Fiction,Funny","47,19,52,87,33,38,2,14,12","5,41,1,1,3,4,32,43,52",1,,9187,2022-06-24 13:31:00,150824
627eb4500b7330807b6a87f7,ma_choice_v4_movies_pilot2,627eb4500b7330807b6a87f7,9,0,-1,-1,"Fantasy World,Drama,Art,Romantic,Science Fiction,Action,Suspense,Funny,Violent","63,73,47,5,44,4,11,0,1","37,36,14,47,19,90,73,64,57",1,,7630,2022-06-24 13:31:00,150825
6156498c17bdcd7cb70c420c,ma_choice_v4_movies_pilot2,6156498c17bdcd7cb70c420c,4,1,-1,-1,"Suspense,Science Fiction,Violent,Drama,Action,Funny,Fantasy World,Romantic,Art","2,15,1,21,20,3,31,99,11","78,47,78,61,83,47,54,21,69",0,,10479,2022-06-24 13:31:03,150826
60fcd2fa241e2b1d59c0c8d8,ma_choice_v4_movies_pilot2,60fcd2fa241e2b1d59c0c8d8,1,1,-1,-1,"Art,Romantic,Science Fiction,Action,Funny,Suspense,Fantasy World,Violent,Drama","14,39,47,18,56,18,61,13,11","79,3,24,66,16,62,34,68,73",1,,9729,2022-06-24 13:31:11,150827
627eb4500b7330807b6a87f7,ma_choice_v4_movies_pilot2,627eb4500b7330807b6a87f7,10,0,-1,-1,"Action,Fantasy World,Violent,Art,Suspense,Romantic,Drama,Funny,Science Fiction","3,28,21,90,3,11,35,29,22","87,51,54,22,79,39,15,6,45",1,,9663,2022-06-24 13:31:11,150828
6156498c17bdcd7cb70c420c,ma_choice_v4_movies_pilot2,6156498c17bdcd7cb70c420c,5,1,-1,-1,"Violent,Art,Fantasy World,Science Fiction,Action,Romantic,Drama,Suspense,Funny","32,4,41,43,3,1,5,1,52","2,38,19,14,33,52,47,87,12",1,,7905,2022-06-24 13:31:12,150829
627eb4500b7330807b6a87f7,ma_choice_v4_movies_pilot2,627eb4500b7330807b6a87f7,11,0,-1,-1,"Fantasy World,Romantic,Suspense,Violent,Drama,Action,Science Fiction,Art,Funny","39,77,54,30,58,44,36,7,28","93,9,0,2,10,5,11,79,8",0,,7652,2022-06-24 13:31:20,150830
6156498c17bdcd7cb70c420c,ma_choice_v4_movies_pilot2,6156498c17bdcd7cb70c420c,6,1,-1,-1,"Drama,Art,Violent,Funny,Suspense,Science Fiction,Romantic,Fantasy World,Action","12,8,3,80,12,51,35,55,27","84,74,26,1,48,22,9,34,3",0,,7909,2022-06-24 13:31:21,150831
60fcd2fa241e2b1d59c0c8d8,ma_choice_v4_movies_pilot2,60fcd2fa241e2b1d59c0c8d8,2,1,-1,-1,"Funny,Art,Science Fiction,Romantic,Action,Violent,Suspense,Fantasy World,Drama","1,58,30,75,34,5,54,39,61","64,23,51,21,56,27,20,66,39",1,,15516,2022-06-24 13:31:27,150832
6156498c17bdcd7cb70c420c,ma_choice_v4_movies_pilot2,6156498c17bdcd7cb70c420c,7,1,-1,-1,"Suspense,Fantasy World,Drama,Action,Art,Violent,Funny,Science Fiction,Romantic","10,75,78,15,50,28,16,22,78","69,40,15,36,24,74,61,47,18",0,,11467,2022-06-24 13:31:33,150833
60fcd2fa241e2b1d59c0c8d8,ma_choice_v4_movies_pilot2,60fcd2fa241e2b1d59c0c8d8,3,1,-1,-1,"Drama,Violent,Suspense,Science Fiction,Romantic,Fantasy World,Art,Action,Funny","21,1,2,15,99,31,11,20,3","61,78,78,47,21,54,69,83,47",1,,7900,2022-06-24 13:31:36,150834
627eb4500b7330807b6a87f7,ma_choice_v4_movies_pilot2,627eb4500b7330807b6a87f7,12,0,-1,-1,"Drama,Action,Fantasy World,Funny,Violent,Art,Science Fiction,Romantic,Suspense","71,3,38,1,2,2,12,50,81","18,37,87,24,22,44,38,26,12",0,,15993,2022-06-24 13:31:37,150835
6156498c17bdcd7cb70c420c,ma_choice_v4_movies_pilot2,6156498c17bdcd7cb70c420c,8,1,-1,-1,"Drama,Suspense,Art,Violent,Science Fiction,Funny,Romantic,Action,Fantasy World","14,31,10,37,48,65,41,24,46","51,3,99,1,18,5,15,3,26",0,,8286,2022-06-24 13:31:42,150836
60fcd2fa241e2b1d59c0c8d8,ma_choice_v4_movies_pilot2,60fcd2fa241e2b1d59c0c8d8,4,1,-1,-1,"Violent,Drama,Action,Fantasy World,Art,Funny,Science Fiction,Suspense,Romantic","26,84,3,34,74,1,22,48,9","3,12,27,55,8,80,51,12,35",1,,10710,2022-06-24 13:31:48,150837
6156498c17bdcd7cb70c420c,ma_choice_v4_movies_pilot2,6156498c17bdcd7cb70c420c,9,1,-1,-1,"Romantic,Fantasy World,Funny,Drama,Art,Suspense,Violent,Action,Science Fiction","21,66,64,39,23,20,27,56,51","75,39,1,61,58,54,5,34,30",0,,9647,2022-06-24 13:31:53,150838
627eb4500b7330807b6a87f7,ma_choice_v4_movies_pilot2,627eb4500b7330807b6a87f7,13,0,-1,-1,"Fantasy World,Suspense,Romantic,Funny,Violent,Science Fiction,Art,Action,Drama","31,53,26,1,1,15,65,3,74","80,9,0,75,21,86,8,57,10",0,,15537,2022-06-24 13:31:53,150839
60fcd2fa241e2b1d59c0c8d8,ma_choice_v4_movies_pilot2,60fcd2fa241e2b1d59c0c8d8,5,1,-1,-1,"Funny,Art,Romantic,Fantasy World,Drama,Violent,Suspense,Science Fiction,Action","9,66,0,57,4,13,0,8,11","35,42,41,23,78,57,80,37,69",1,,9011,2022-06-24 13:31:58,150840
60fcd2fa241e2b1d59c0c8d8,ma_choice_v4_movies_pilot2,60fcd2fa241e2b1d59c0c8d8,6,1,-1,-1,"Drama,Funny,Action,Fantasy World,Violent,Art,Romantic,Suspense,Science Fiction","22,30,79,65,3,13,25,90,87","80,1,6,34,39,65,0,19,17",0,,8934,2022-06-24 13:32:08,150841
60fcd2fa241e2b1d59c0c8d8,ma_choice_v4_movies_pilot2,60fcd2fa241e2b1d59c0c8d8,7,1,-1,-1,"Science Fiction,Action,Fantasy World,Romantic,Art,Funny,Drama,Violent,Suspense","20,3,25,14,70,0,65,3,2","45,34,46,37,36,73,21,30,24",1,,8814,2022-06-24 13:32:18,150842
627eb4500b7330807b6a87f7,ma_choice_v4_movies_pilot2,627eb4500b7330807b6a87f7,14,0,-1,-1,"Violent,Science Fiction,Romantic,Action,Art,Funny,Fantasy World,Suspense,Drama","26,42,5,9,69,88,76,61,58","2,21,31,45,18,7,40,82,27",0,,24305,2022-06-24 13:32:18,150843
60fcd2fa241e2b1d59c0c8d8,ma_choice_v4_movies_pilot2,60fcd2fa241e2b1d59c0c8d8,8,1,-1,-1,"Funny,Drama,Action,Violent,Science Fiction,Suspense,Fantasy World,Art,Romantic","16,78,15,28,22,10,75,50,78","61,15,36,74,47,69,40,24,18",1,,7568,2022-06-24 13:32:26,150844
60fcd2fa241e2b1d59c0c8d8,ma_choice_v4_movies_pilot2,60fcd2fa241e2b1d59c0c8d8,9,1,-1,-1,"Funny,Romantic,Art,Violent,Suspense,Drama,Action,Fantasy World,Science Fiction","65,41,10,37,31,14,24,46,48","5,15,99,1,3,51,3,26,18",0,,8815,2022-06-24 13:32:36,150845
6156498c17bdcd7cb70c420c,ma_choice_v4_movies_pilot2,6156498c17bdcd7cb70c420c,0,0,-1,-1,"Romantic,Suspense,Drama,Funny,Science Fiction,Action,Fantasy World,Art,Violent","52,19,44,78,41,7,49,7,3","1,49,4,18,100,89,74,71,78",0,,7889,2022-06-24 13:32:52,150846
6156498c17bdcd7cb70c420c,ma_choice_v4_movies_pilot2,6156498c17bdcd7cb70c420c,1,0,-1,-1,"Fantasy World,Suspense,Funny,Action,Romantic,Drama,Science Fiction,Art,Violent","46,35,63,91,72,23,8,14,60","69,1,2,2,14,77,44,46,3",1,,7645,2022-06-24 13:33:01,150847
627eb4500b7330807b6a87f7,ma_choice_v4_movies_pilot2,627eb4500b7330807b6a87f7,15,0,-1,-1,"Art,Romantic,Action,Fantasy World,Violent,Suspense,Science Fiction,Funny,Drama","0,3,49,63,61,1,27,1,6","30,53,25,37,20,26,47,63,67",1,,46862,2022-06-24 13:33:06,150848
6156498c17bdcd7cb70c420c,ma_choice_v4_movies_pilot2,6156498c17bdcd7cb70c420c,2,0,-1,-1,"Romantic,Science Fiction,Drama,Action,Art,Fantasy World,Violent,Funny,Suspense","47,30,79,31,2,31,26,1,84","73,4,22,7,33,68,1,33,5",1,,7651,2022-06-24 13:33:09,150849
60fcd2fa241e2b1d59c0c8d8,ma_choice_v4_movies_pilot2,60fcd2fa241e2b1d59c0c8d8,0,0,-1,-1,"Romantic,Suspense,Action,Science Fiction,Fantasy World,Funny,Drama,Violent,Art","74,26,2,19,46,60,73,30,60","9,2,28,41,75,9,5,2,15",0,,7598,2022-06-24 13:33:13,150850
6156498c17bdcd7cb70c420c,ma_choice_v4_movies_pilot2,6156498c17bdcd7cb70c420c,3,0,-1,-1,"Fantasy World,Funny,Action,Romantic,Science Fiction,Violent,Art,Suspense,Drama","76,43,91,10,99,76,31,46,34","49,17,12,41,3,16,3,20,69",1,,8013,2022-06-24 13:33:18,150851
60fcd2fa241e2b1d59c0c8d8,ma_choice_v4_movies_pilot2,60fcd2fa241e2b1d59c0c8d8,1,0,-1,-1,"Romantic,Art,Science Fiction,Funny,Fantasy World,Suspense,Action,Violent,Drama","31,24,20,1,51,58,28,1,63","0,71,42,25,30,1,61,73,26",1,,8101,2022-06-24 13:33:22,150852
6156498c17bdcd7cb70c420c,ma_choice_v4_movies_pilot2,6156498c17bdcd7cb70c420c,4,0,-1,-1,"Drama,Science Fiction,Violent,Action,Fantasy World,Suspense,Funny,Art,Romantic","10,35,6,2,57,5,66,2,5","73,9,39,23,20,71,7,45,28",0,,7551,2022-06-24 13:33:27,150853
627eb4500b7330807b6a87f7,ma_choice_v4_movies_pilot2,627eb4500b7330807b6a87f7,16,0,-1,-1,"Fantasy World,Violent,Action,Suspense,Funny,Art,Drama,Science Fiction,Romantic","62,75,8,30,9,84,76,49,47","38,7,84,62,43,36,36,100,14",0,,23355,2022-06-24 13:33:31,150854
60fcd2fa241e2b1d59c0c8d8,ma_choice_v4_movies_pilot2,60fcd2fa241e2b1d59c0c8d8,2,0,-1,-1,"Action,Art,Funny,Romantic,Fantasy World,Suspense,Science Fiction,Drama,Violent","7,7,50,0,26,77,22,20,60","42,29,9,23,50,19,81,64,11",1,,10223,2022-06-24 13:33:34,150855
6156498c17bdcd7cb70c420c,ma_choice_v4_movies_pilot2,6156498c17bdcd7cb70c420c,5,0,-1,-1,"Art,Suspense,Romantic,Violent,Science Fiction,Drama,Action,Fantasy World,Funny","100,20,23,27,32,51,4,66,8","33,68,88,5,100,28,78,43,47",1,,7994,2022-06-24 13:33:36,150856
60fcd2fa241e2b1d59c0c8d8,ma_choice_v4_movies_pilot2,60fcd2fa241e2b1d59c0c8d8,3,0,-1,-1,"Suspense,Fantasy World,Funny,Action,Art,Violent,Science Fiction,Romantic,Drama","42,34,55,44,3,13,45,45,16","0,61,2,14,45,34,25,15,39",0,,7530,2022-06-24 13:33:42,150857
6156498c17bdcd7cb70c420c,ma_choice_v4_movies_pilot2,6156498c17bdcd7cb70c420c,6,0,-1,-1,"Violent,Art,Funny,Science Fiction,Romantic,Action,Fantasy World,Suspense,Drama","47,80,72,52,25,90,32,64,47","1,4,29,25,2,5,54,1,4",1,,7947,2022-06-24 13:33:45,150858
60fcd2fa241e2b1d59c0c8d8,ma_choice_v4_movies_pilot2,60fcd2fa241e2b1d59c0c8d8,4,0,-1,-1,"Action,Romantic,Funny,Fantasy World,Art,Science Fiction,Drama,Suspense,Violent","27,2,72,35,3,7,12,7,1","3,23,6,56,69,27,76,28,53",1,,8947,2022-06-24 13:33:52,150859
6156498c17bdcd7cb70c420c,ma_choice_v4_movies_pilot2,6156498c17bdcd7cb70c420c,7,0,-1,-1,"Action,Drama,Funny,Fantasy World,Suspense,Science Fiction,Violent,Art,Romantic","10,7,69,46,4,30,13,31,83","55,79,1,69,57,60,83,11,5",0,,13603,2022-06-24 13:34:00,150860
60fcd2fa241e2b1d59c0c8d8,ma_choice_v4_movies_pilot2,60fcd2fa241e2b1d59c0c8d8,5,0,-1,-1,"Funny,Romantic,Art,Suspense,Violent,Science Fiction,Action,Drama,Fantasy World","1,0,50,57,85,100,75,33,37","37,49,7,6,1,42,18,73,91",0,,7882,2022-06-24 13:34:01,150861
6156498c17bdcd7cb70c420c,ma_choice_v4_movies_pilot2,6156498c17bdcd7cb70c420c,8,0,-1,-1,"Science Fiction,Drama,Suspense,Romantic,Fantasy World,Funny,Art,Violent,Action","82,73,73,5,75,35,35,49,34","34,9,26,88,44,3,2,3,5",1,,8121,2022-06-24 13:34:09,150862
60fcd2fa241e2b1d59c0c8d8,ma_choice_v4_movies_pilot2,60fcd2fa241e2b1d59c0c8d8,6,0,-1,-1,"Violent,Drama,Art,Science Fiction,Fantasy World,Romantic,Action,Funny,Suspense","1,11,55,30,29,74,3,13,0","33,57,2,56,71,30,25,82,27",1,,7525,2022-06-24 13:34:10,150863
627eb4500b7330807b6a87f7,ma_choice_v4_movies_pilot2,627eb4500b7330807b6a87f7,17,0,-1,-1,"Violent,Drama,Romantic,Science Fiction,Art,Suspense,Fantasy World,Action,Funny","60,20,0,22,7,77,26,7,50","11,64,23,81,29,19,50,42,9",1,,41544,2022-06-24 13:34:13,150864
60fcd2fa241e2b1d59c0c8d8,ma_choice_v4_movies_pilot2,60fcd2fa241e2b1d59c0c8d8,7,0,-1,-1,"Suspense,Funny,Romantic,Science Fiction,Fantasy World,Action,Violent,Drama,Art","70,1,11,10,34,81,36,26,61","2,58,70,33,56,22,1,5,7",1,,7578,2022-06-24 13:34:18,150865
6156498c17bdcd7cb70c420c,ma_choice_v4_movies_pilot2,6156498c17bdcd7cb70c420c,9,0,-1,-1,"Suspense,Fantasy World,Romantic,Funny,Drama,Violent,Science Fiction,Art,Action","11,42,39,75,65,4,72,10,51","35,63,7,1,5,75,40,95,9",0,,9353,2022-06-24 13:34:19,150866
60fcd2fa241e2b1d59c0c8d8,ma_choice_v4_movies_pilot2,60fcd2fa241e2b1d59c0c8d8,8,0,-1,-1,"Action,Funny,Suspense,Romantic,Fantasy World,Violent,Science Fiction,Art,Drama","14,1,64,1,38,43,14,39,3","91,71,16,21,88,22,76,16,31",1,,7604,2022-06-24 13:34:27,150867
6156498c17bdcd7cb70c420c,ma_choice_v4_movies_pilot2,6156498c17bdcd7cb70c420c,10,0,-1,-1,"Violent,Suspense,Action,Romantic,Science Fiction,Art,Fantasy World,Drama,Funny","77,77,11,82,16,69,58,76,6","17,19,64,4,68,18,34,17,73",1,,8181,2022-06-24 13:34:28,150868
60fcd2fa241e2b1d59c0c8d8,ma_choice_v4_movies_pilot2,60fcd2fa241e2b1d59c0c8d8,9,0,-1,-1,"Funny,Violent,Drama,Art,Fantasy World,Romantic,Action,Science Fiction,Suspense","24,12,76,72,29,37,7,63,45","1,47,17,13,65,5,30,17,75",0,,7542,2022-06-24 13:34:35,150869
627eb4500b7330807b6a87f7,ma_choice_v4_movies_pilot2,627eb4500b7330807b6a87f7,18,0,-1,-1,"Science Fiction,Funny,Romantic,Action,Fantasy World,Art,Violent,Suspense,Drama","10,23,70,14,14,30,1,19,76","35,1,8,79,39,8,32,56,7",1,,21507,2022-06-24 13:34:36,150870
6156498c17bdcd7cb70c420c,ma_choice_v4_movies_pilot2,6156498c17bdcd7cb70c420c,11,0,-1,-1,"Romantic,Suspense,Violent,Drama,Funny,Action,Fantasy World,Art,Science Fiction","5,11,1,73,0,4,63,47,44","47,73,57,36,64,90,37,14,19",0,,8158,2022-06-24 13:34:37,150871
60fcd2fa241e2b1d59c0c8d8,ma_choice_v4_movies_pilot2,60fcd2fa241e2b1d59c0c8d8,10,0,-1,-1,"Violent,Romantic,Drama,Action,Fantasy World,Art,Suspense,Science Fiction,Funny","1,80,71,35,53,14,40,25,22","35,0,8,6,30,88,11,1,1",0,,8492,2022-06-24 13:34:45,150872
6156498c17bdcd7cb70c420c,ma_choice_v4_movies_pilot2,6156498c17bdcd7cb70c420c,12,0,-1,-1,"Romantic,Fantasy World,Funny,Suspense,Science Fiction,Action,Drama,Art,Violent","17,45,0,76,26,3,79,79,50","87,78,38,8,5,55,21,2,2",1,,7943,2022-06-24 13:34:46,150873
627eb4500b7330807b6a87f7,ma_choice_v4_movies_pilot2,627eb4500b7330807b6a87f7,19,0,-1,-1,"Drama,Violent,Fantasy World,Romantic,Suspense,Funny,Art,Action,Science Fiction","79,50,45,17,76,0,79,3,26","21,2,78,87,8,38,2,55,5",0,,12306,2022-06-24 13:34:49,150874
60fcd2fa241e2b1d59c0c8d8,ma_choice_v4_movies_pilot2,60fcd2fa241e2b1d59c0c8d8,11,0,-1,-1,"Action,Drama,Art,Suspense,Fantasy World,Violent,Science Fiction,Funny,Romantic","57,10,8,9,80,21,86,75,0","3,74,65,53,31,1,15,1,26",0,,8215,2022-06-24 13:34:54,150875
6156498c17bdcd7cb70c420c,ma_choice_v4_movies_pilot2,6156498c17bdcd7cb70c420c,13,0,-1,-1,"Fantasy World,Suspense,Funny,Romantic,Violent,Action,Drama,Science Fiction,Art","11,32,2,47,41,3,78,13,53","53,4,67,16,2,24,13,90,22",1,,8932,2022-06-24 13:34:56,150876
60fcd2fa241e2b1d59c0c8d8,ma_choice_v4_movies_pilot2,60fcd2fa241e2b1d59c0c8d8,12,0,-1,-1,"Science Fiction,Funny,Fantasy World,Romantic,Suspense,Violent,Art,Drama,Action","30,5,59,5,69,88,38,82,26","2,83,16,37,11,23,12,16,5",0,,8063,2022-06-24 13:35:03,150877
6156498c17bdcd7cb70c420c,ma_choice_v4_movies_pilot2,6156498c17bdcd7cb70c420c,14,0,-1,-1,"Science Fiction,Violent,Suspense,Romantic,Art,Fantasy World,Drama,Action,Funny","39,4,45,95,37,40,48,11,70","14,29,21,40,5,92,7,74,9",0,,8108,2022-06-24 13:35:05,150878
60fcd2fa241e2b1d59c0c8d8,ma_choice_v4_movies_pilot2,60fcd2fa241e2b1d59c0c8d8,13,0,-1,-1,"Art,Funny,Action,Fantasy World,Science Fiction,Violent,Suspense,Drama,Romantic","18,7,45,40,21,2,82,27,31","69,88,9,76,42,26,61,58,5",1,,9094,2022-06-24 13:35:13,150879
627eb4500b7330807b6a87f7,ma_choice_v4_movies_pilot2,627eb4500b7330807b6a87f7,20,0,-1,-1,"Fantasy World,Drama,Science Fiction,Romantic,Action,Suspense,Art,Violent,Funny","56,76,27,23,3,28,69,53,6","35,12,7,2,27,7,3,1,72",0,,23778,2022-06-24 13:35:14,150880
6156498c17bdcd7cb70c420c,ma_choice_v4_movies_pilot2,6156498c17bdcd7cb70c420c,15,0,-1,-1,"Science Fiction,Romantic,Suspense,Violent,Art,Action,Fantasy World,Funny,Drama","0,76,55,29,71,18,24,60,85","25,24,13,1,44,60,45,5,9",1,,8581,2022-06-24 13:35:15,150881
6156498c17bdcd7cb70c420c,ma_choice_v4_movies_pilot2,6156498c17bdcd7cb70c420c,16,0,-1,-1,"Violent,Action,Suspense,Science Fiction,Art,Romantic,Drama,Funny,Fantasy World","2,10,0,10,79,5,77,6,24","31,68,24,53,1,28,19,65,46",0,,8170,2022-06-24 13:35:24,150882
60fcd2fa241e2b1d59c0c8d8,ma_choice_v4_movies_pilot2,60fcd2fa241e2b1d59c0c8d8,14,0,-1,-1,"Drama,Fantasy World,Funny,Romantic,Art,Science Fiction,Action,Violent,Suspense","10,93,8,9,79,11,5,2,0","58,39,28,77,7,36,44,30,54",1,,10892,2022-06-24 13:35:25,150883
627eb4500b7330807b6a87f7,ma_choice_v4_movies_pilot2,627eb4500b7330807b6a87f7,21,0,-1,-1,"Science Fiction,Art,Romantic,Suspense,Drama,Funny,Violent,Action,Fantasy World","18,3,33,2,63,7,1,59,12","50,38,5,31,22,44,21,7,55",1,,12479,2022-06-24 13:35:27,150884
60fcd2fa241e2b1d59c0c8d8,ma_choice_v4_movies_pilot2,60fcd2fa241e2b1d59c0c8d8,15,0,-1,-1,"Romantic,Science Fiction,Art,Fantasy World,Action,Drama,Suspense,Funny,Violent","92,48,71,66,30,32,39,6,1","10,22,13,38,6,10,7,66,23",0,,7604,2022-06-24 13:35:34,150885
627eb4500b7330807b6a87f7,ma_choice_v4_movies_pilot2,627eb4500b7330807b6a87f7,22,0,-1,-1,"Fantasy World,Violent,Science Fiction,Action,Drama,Art,Suspense,Romantic,Funny","71,33,56,25,57,2,27,30,82","29,1,30,3,11,55,0,74,13",0,,8811,2022-06-24 13:35:37,150886
6156498c17bdcd7cb70c420c,ma_choice_v4_movies_pilot2,6156498c17bdcd7cb70c420c,17,0,-1,-1,"Fantasy World,Suspense,Science Fiction,Drama,Romantic,Funny,Action,Art,Violent","37,26,47,67,53,63,25,30,20","63,1,27,6,3,1,49,0,61",0,,14454,2022-06-24 13:35:40,150887
60fcd2fa241e2b1d59c0c8d8,ma_choice_v4_movies_pilot2,60fcd2fa241e2b1d59c0c8d8,16,0,-1,-1,"Art,Violent,Science Fiction,Suspense,Drama,Funny,Romantic,Action,Fantasy World","53,41,13,32,78,2,47,3,11","22,2,90,4,13,67,16,24,53",0,,9897,2022-06-24 13:35:45,150888
627eb4500b7330807b6a87f7,ma_choice_v4_movies_pilot2,627eb4500b7330807b6a87f7,23,0,-1,-1,"Fantasy World,Funny,Art,Suspense,Violent,Action,Drama,Romantic,Science Fiction","34,1,79,6,74,8,42,3,4","79,23,19,78,15,71,12,24,46",1,,9329,2022-06-24 13:35:47,150889
6156498c17bdcd7cb70c420c,ma_choice_v4_movies_pilot2,6156498c17bdcd7cb70c420c,18,0,-1,-1,"Suspense,Art,Science Fiction,Action,Drama,Romantic,Funny,Fantasy World,Violent","78,19,46,71,12,24,23,79,15","6,79,4,8,42,3,1,34,74",0,,9979,2022-06-24 13:35:51,150890
60fcd2fa241e2b1d59c0c8d8,ma_choice_v4_movies_pilot2,60fcd2fa241e2b1d59c0c8d8,17,0,-1,-1,"Science Fiction,Action,Violent,Suspense,Funny,Fantasy World,Drama,Romantic,Art","34,5,3,26,3,44,9,88,2","82,34,49,73,35,75,73,5,35",1,,7843,2022-06-24 13:35:54,150891
627eb4500b7330807b6a87f7,ma_choice_v4_movies_pilot2,627eb4500b7330807b6a87f7,24,0,-1,-1,"Violent,Science Fiction,Drama,Funny,Action,Art,Suspense,Romantic,Fantasy World","23,22,10,66,6,13,7,10,38","1,48,32,6,30,71,39,92,66",1,,8630,2022-06-24 13:35:57,150892
6156498c17bdcd7cb70c420c,ma_choice_v4_movies_pilot2,6156498c17bdcd7cb70c420c,19,0,-1,-1,"Art,Funny,Action,Violent,Drama,Fantasy World,Science Fiction,Romantic,Suspense","60,60,2,30,73,46,19,74,26","15,9,28,2,5,75,41,9,2",1,,8067,2022-06-24 13:36:00,150893
60fcd2fa241e2b1d59c0c8d8,ma_choice_v4_movies_pilot2,60fcd2fa241e2b1d59c0c8d8,18,0,-1,-1,"Funny,Drama,Suspense,Violent,Action,Romantic,Art,Fantasy World,Science Fiction","65,7,8,1,37,4,6,58,35","6,78,57,60,11,34,54,22,8",1,,7661,2022-06-24 13:36:02,150894
60fcd2fa241e2b1d59c0c8d8,ma_choice_v4_movies_pilot2,60fcd2fa241e2b1d59c0c8d8,19,0,-1,-1,"Action,Romantic,Art,Drama,Science Fiction,Violent,Fantasy World,Funny,Suspense","92,25,10,15,7,12,65,52,55","5,2,62,55,32,75,40,1,21",1,,7312,2022-06-24 13:36:11,150895
60fcd2fa241e2b1d59c0c8d8,ma_choice_v4_movies_pilot2,60fcd2fa241e2b1d59c0c8d8,20,0,-1,-1,"Fantasy World,Romantic,Action,Science Fiction,Funny,Violent,Drama,Art,Suspense","66,37,73,36,4,49,75,23,89","35,5,3,15,24,1,30,43,3",0,,7631,2022-06-24 13:36:19,150896
60fcd2fa241e2b1d59c0c8d8,ma_choice_v4_movies_pilot2,60fcd2fa241e2b1d59c0c8d8,21,0,-1,-1,"Romantic,Science Fiction,Art,Fantasy World,Action,Drama,Funny,Violent,Suspense","79,52,83,37,1,32,43,7,69","37,28,34,59,80,8,15,51,12",0,,7949,2022-06-24 13:36:28,150897
60fcd2fa241e2b1d59c0c8d8,ma_choice_v4_movies_pilot2,60fcd2fa241e2b1d59c0c8d8,22,0,-1,-1,"Romantic,Science Fiction,Funny,Fantasy World,Art,Action,Drama,Violent,Suspense","2,79,70,84,18,3,68,70,0","22,24,1,41,74,32,26,15,27",1,,7662,2022-06-24 13:36:37,150898
627eb4500b7330807b6a87f7,ma_choice_v4_movies_pilot2,627eb4500b7330807b6a87f7,25,0,-1,-1,"Violent,Art,Fantasy World,Science Fiction,Drama,Action,Funny,Suspense,Romantic","88,38,59,30,82,26,5,69,5","23,12,16,2,16,5,83,11,37",0,,39933,2022-06-24 13:36:38,150899
60fcd2fa241e2b1d59c0c8d8,ma_choice_v4_movies_pilot2,60fcd2fa241e2b1d59c0c8d8,23,0,-1,-1,"Romantic,Violent,Suspense,Science Fiction,Drama,Action,Art,Fantasy World,Funny","46,1,1,30,42,5,9,69,11","0,75,35,51,6,81,75,44,47",1,,7831,2022-06-24 13:36:46,150900
60fcd2fa241e2b1d59c0c8d8,ma_choice_v4_movies_pilot2,60fcd2fa241e2b1d59c0c8d8,24,0,-1,-1,"Funny,Science Fiction,Drama,Action,Fantasy World,Art,Suspense,Romantic,Violent","1,60,79,55,69,11,57,5,83","69,30,7,10,46,31,4,83,13",1,,9418,2022-06-24 13:36:56,150901
627eb4500b7330807b6a87f7,ma_choice_v4_movies_pilot2,627eb4500b7330807b6a87f7,26,0,-1,-1,"Art,Suspense,Drama,Action,Funny,Violent,Romantic,Fantasy World,Science Fiction","50,54,75,88,2,78,2,46,46","71,1,22,2,33,1,78,24,26",0,,19791,2022-06-24 13:36:59,150902
60fcd2fa241e2b1d59c0c8d8,ma_choice_v4_movies_pilot2,60fcd2fa241e2b1d59c0c8d8,25,0,-1,-1,"Suspense,Funny,Action,Art,Romantic,Violent,Science Fiction,Drama,Fantasy World","11,75,51,10,39,4,72,65,42","35,1,9,95,7,75,40,5,63",0,,7909,2022-06-24 13:37:05,150903
60fcd2fa241e2b1d59c0c8d8,ma_choice_v4_movies_pilot2,60fcd2fa241e2b1d59c0c8d8,26,0,-1,-1,"Fantasy World,Drama,Romantic,Violent,Suspense,Art,Science Fiction,Action,Funny","43,28,88,5,68,33,100,78,47","66,51,23,27,20,100,32,4,8",0,,7628,2022-06-24 13:37:14,150904
60fcd2fa241e2b1d59c0c8d8,ma_choice_v4_movies_pilot2,60fcd2fa241e2b1d59c0c8d8,27,0,-1,-1,"Violent,Romantic,Art,Funny,Fantasy World,Suspense,Science Fiction,Drama,Action","5,38,6,53,58,12,45,15,37","66,11,27,14,37,48,14,79,5",0,,9077,2022-06-24 13:37:24,150905
627eb4500b7330807b6a87f7,ma_choice_v4_movies_pilot2,627eb4500b7330807b6a87f7,27,0,-1,-1,"Action,Fantasy World,Romantic,Drama,Funny,Art,Violent,Science Fiction,Suspense","22,56,70,5,58,7,1,33,2","81,34,11,26,1,61,36,10,70",0,,25884,2022-06-24 13:37:26,150906
60fcd2fa241e2b1d59c0c8d8,ma_choice_v4_movies_pilot2,60fcd2fa241e2b1d59c0c8d8,28,0,-1,-1,"Fantasy World,Violent,Romantic,Art,Action,Drama,Science Fiction,Suspense,Funny","58,77,82,69,11,76,16,77,6","34,17,4,18,64,17,68,19,73",1,,9171,2022-06-24 13:37:34,150907
627eb4500b7330807b6a87f7,ma_choice_v4_movies_pilot2,627eb4500b7330807b6a87f7,28,0,-1,-1,"Funny,Science Fiction,Drama,Violent,Fantasy World,Art,Romantic,Suspense,Action","1,100,33,85,37,50,0,57,75","37,42,73,1,91,7,49,6,18",0,,7480,2022-06-24 13:37:34,150908
60fcd2fa241e2b1d59c0c8d8,ma_choice_v4_movies_pilot2,60fcd2fa241e2b1d59c0c8d8,29,0,-1,-1,"Suspense,Fantasy World,Action,Romantic,Violent,Drama,Funny,Art,Science Fiction","49,74,89,1,78,4,18,71,100","19,49,7,52,3,44,78,7,41",1,,8005,2022-06-24 13:37:43,150909
6156498c17bdcd7cb70c420c,ma_choice_v4_movies_pilot2,6156498c17bdcd7cb70c420c,20,0,-1,-1,"Drama,Funny,Art,Fantasy World,Suspense,Romantic,Violent,Action,Science Fiction","64,9,29,50,19,23,11,42,81","20,50,7,26,77,0,60,7,22",0,,105345,2022-06-24 13:37:46,150910
60fcd2fa241e2b1d59c0c8d8,ma_choice_v4_movies_pilot2,60fcd2fa241e2b1d59c0c8d8,30,0,-1,-1,"Action,Violent,Suspense,Art,Fantasy World,Funny,Romantic,Drama,Science Fiction","42,25,61,64,81,85,27,48,80","13,1,4,23,41,44,6,6,45",0,,7649,2022-06-24 13:37:52,150911
627eb4500b7330807b6a87f7,ma_choice_v4_movies_pilot2,627eb4500b7330807b6a87f7,29,0,-1,-1,"Funny,Violent,Drama,Action,Romantic,Art,Suspense,Science Fiction,Fantasy World","35,49,73,34,5,35,73,82,75","3,3,9,5,88,2,26,34,44",0,,19060,2022-06-24 13:37:54,150912
62aa0d284ca4afc50b51e09f,ma_choice_v4_movies_pilot2,62aa0d284ca4afc50b51e09f,0,1,-1,-1,"Suspense,Romantic,Fantasy World,Funny,Art,Science Fiction,Drama,Violent,Action","19,0,34,1,65,17,80,39,6","90,25,65,30,13,87,22,3,79",1,,25047,2022-06-24 13:37:59,150913
6156498c17bdcd7cb70c420c,ma_choice_v4_movies_pilot2,6156498c17bdcd7cb70c420c,21,0,-1,-1,"Funny,Suspense,Romantic,Drama,Action,Science Fiction,Art,Violent,Fantasy World","66,33,52,28,23,46,22,13,58","1,0,2,56,2,1,94,34,29",0,,12445,2022-06-24 13:38:00,150914
60fcd2fa241e2b1d59c0c8d8,ma_choice_v4_movies_pilot2,60fcd2fa241e2b1d59c0c8d8,31,0,-1,-1,"Drama,Romantic,Violent,Fantasy World,Science Fiction,Action,Funny,Art,Suspense","56,30,18,66,28,11,4,94,12","76,50,81,37,77,92,66,26,76",1,,7711,2022-06-24 13:38:00,150915
6156498c17bdcd7cb70c420c,ma_choice_v4_movies_pilot2,6156498c17bdcd7cb70c420c,22,0,-1,-1,"Art,Romantic,Science Fiction,Drama,Violent,Funny,Suspense,Action,Fantasy World","22,65,40,40,1,66,10,17,55","-1,3,3,20,45,4,43,84,31",0,,8019,2022-06-24 13:38:09,150916
60fcd2fa241e2b1d59c0c8d8,ma_choice_v4_movies_pilot2,60fcd2fa241e2b1d59c0c8d8,32,0,-1,-1,"Art,Fantasy World,Science Fiction,Funny,Suspense,Action,Violent,Romantic,Drama","21,47,35,35,73,78,62,13,30","57,27,5,0,7,6,10,83,86",0,,7724,2022-06-24 13:38:09,150917
62aa0d284ca4afc50b51e09f,ma_choice_v4_movies_pilot2,62aa0d284ca4afc50b51e09f,1,1,-1,-1,"Funny,Violent,Action,Fantasy World,Art,Drama,Suspense,Romantic,Science Fiction","16,28,15,75,50,78,10,78,22","61,74,36,40,24,15,69,18,47",0,,10876,2022-06-24 13:38:10,150918
627eb4500b7330807b6a87f7,ma_choice_v4_movies_pilot2,627eb4500b7330807b6a87f7,30,0,-1,-1,"Fantasy World,Drama,Suspense,Science Fiction,Violent,Action,Art,Romantic,Funny","51,63,58,20,1,28,24,31,1","30,26,1,42,73,61,71,0,25",0,,20194,2022-06-24 13:38:16,150919
62aa0d284ca4afc50b51e09f,ma_choice_v4_movies_pilot2,62aa0d284ca4afc50b51e09f,2,1,-1,-1,"Action,Violent,Science Fiction,Funny,Suspense,Drama,Art,Fantasy World,Romantic","11,13,8,9,0,4,66,57,0","69,57,37,35,80,78,42,23,41",1,,7961,2022-06-24 13:38:19,150920
60fcd2fa241e2b1d59c0c8d8,ma_choice_v4_movies_pilot2,60fcd2fa241e2b1d59c0c8d8,33,0,-1,-1,"Suspense,Science Fiction,Drama,Fantasy World,Romantic,Funny,Violent,Action,Art","21,1,64,100,44,21,27,23,76","0,28,41,49,3,1,1,2,10",0,,8802,2022-06-24 13:38:19,150921
6156498c17bdcd7cb70c420c,ma_choice_v4_movies_pilot2,6156498c17bdcd7cb70c420c,23,0,-1,-1,"Suspense,Art,Action,Violent,Funny,Fantasy World,Romantic,Drama,Science Fiction","37,46,3,1,44,17,85,91,9","7,18,64,29,7,41,2,12,99",0,,11808,2022-06-24 13:38:21,150922
62aa0d284ca4afc50b51e09f,ma_choice_v4_movies_pilot2,62aa0d284ca4afc50b51e09f,3,1,-1,-1,"Romantic,Violent,Drama,Fantasy World,Suspense,Funny,Action,Science Fiction,Art","14,3,65,25,2,0,3,20,70","37,30,21,46,24,73,34,45,36",1,,7989,2022-06-24 13:38:28,150923
60fcd2fa241e2b1d59c0c8d8,ma_choice_v4_movies_pilot2,60fcd2fa241e2b1d59c0c8d8,34,0,-1,-1,"Drama,Art,Violent,Fantasy World,Science Fiction,Romantic,Funny,Action,Suspense","68,90,6,46,70,63,10,48,89","14,16,65,74,33,7,76,14,1",0,,10347,2022-06-24 13:38:30,150924
6156498c17bdcd7cb70c420c,ma_choice_v4_movies_pilot2,6156498c17bdcd7cb70c420c,24,0,-1,-1,"Action,Funny,Romantic,Suspense,Fantasy World,Violent,Art,Science Fiction,Drama","71,45,86,19,60,14,16,29,14","13,6,14,80,34,68,65,1,62",0,,8635,2022-06-24 13:38:31,150925
62aa0d284ca4afc50b51e09f,ma_choice_v4_movies_pilot2,62aa0d284ca4afc50b51e09f,4,1,-1,-1,"Fantasy World,Suspense,Drama,Funny,Romantic,Art,Action,Science Fiction,Violent","19,87,47,12,52,38,33,14,2","41,1,5,52,1,4,3,43,32",0,,8333,2022-06-24 13:38:37,150926
60fcd2fa241e2b1d59c0c8d8,ma_choice_v4_movies_pilot2,60fcd2fa241e2b1d59c0c8d8,35,0,-1,-1,"Romantic,Drama,Art,Violent,Funny,Fantasy World,Science Fiction,Action,Suspense","2,4,4,1,29,54,25,5,1","25,47,80,47,72,32,52,90,64",1,,7761,2022-06-24 13:38:39,150927
6156498c17bdcd7cb70c420c,ma_choice_v4_movies_pilot2,6156498c17bdcd7cb70c420c,25,0,-1,-1,"Science Fiction,Art,Funny,Violent,Suspense,Action,Drama,Romantic,Fantasy World","8,61,5,12,42,10,64,15,23","73,13,41,35,11,33,22,43,76",0,,8467,2022-06-24 13:38:40,150928
62aa0d284ca4afc50b51e09f,ma_choice_v4_movies_pilot2,62aa0d284ca4afc50b51e09f,5,1,-1,-1,"Art,Romantic,Violent,Science Fiction,Suspense,Funny,Fantasy World,Action,Drama","10,41,37,48,31,65,46,24,14","99,15,1,18,3,5,26,3,51",0,,8029,2022-06-24 13:38:46,150929
60fcd2fa241e2b1d59c0c8d8,ma_choice_v4_movies_pilot2,60fcd2fa241e2b1d59c0c8d8,36,0,-1,-1,"Action,Science Fiction,Drama,Romantic,Suspense,Fantasy World,Art,Violent,Funny","23,27,74,52,49,42,28,100,3","56,57,9,15,12,65,2,3,62",0,,10089,2022-06-24 13:38:50,150930
6156498c17bdcd7cb70c420c,ma_choice_v4_movies_pilot2,6156498c17bdcd7cb70c420c,26,0,-1,-1,"Romantic,Violent,Science Fiction,Fantasy World,Drama,Funny,Art,Suspense,Action","78,77,0,18,54,6,87,23,4","3,1,35,41,2,37,54,1,32",1,,8672,2022-06-24 13:38:50,150931
62aa0d284ca4afc50b51e09f,ma_choice_v4_movies_pilot2,62aa0d284ca4afc50b51e09f,6,1,-1,-1,"Funny,Violent,Art,Suspense,Action,Science Fiction,Fantasy World,Drama,Romantic","47,78,69,78,83,47,54,61,21","3,1,11,2,20,15,31,21,99",0,,7750,2022-06-24 13:38:55,150932
6156498c17bdcd7cb70c420c,ma_choice_v4_movies_pilot2,6156498c17bdcd7cb70c420c,27,0,-1,-1,"Art,Funny,Violent,Drama,Suspense,Science Fiction,Fantasy World,Romantic,Action","38,5,88,82,69,30,59,5,26","12,83,23,16,11,2,16,37,5",1,,7982,2022-06-24 13:38:59,150933
60fcd2fa241e2b1d59c0c8d8,ma_choice_v4_movies_pilot2,60fcd2fa241e2b1d59c0c8d8,37,0,-1,-1,"Drama,Art,Funny,Suspense,Action,Romantic,Science Fiction,Fantasy World,Violent","72,41,13,79,59,56,38,49,73","10,7,81,6,7,19,3,15,8",0,,9431,2022-06-24 13:39:01,150934
62aa0d284ca4afc50b51e09f,ma_choice_v4_movies_pilot2,62aa0d284ca4afc50b51e09f,7,1,-1,-1,"Violent,Science Fiction,Romantic,Fantasy World,Drama,Art,Funny,Suspense,Action","68,24,3,34,73,79,16,62,66","13,47,39,61,11,14,56,18,18",0,,9780,2022-06-24 13:39:06,150935
6156498c17bdcd7cb70c420c,ma_choice_v4_movies_pilot2,6156498c17bdcd7cb70c420c,28,0,-1,-1,"Suspense,Fantasy World,Romantic,Funny,Action,Drama,Science Fiction,Violent,Art","89,46,63,10,48,68,70,6,90","1,74,7,76,14,14,33,65,16",0,,7915,2022-06-24 13:39:08,150936
627eb4500b7330807b6a87f7,ma_choice_v4_movies_pilot2,627eb4500b7330807b6a87f7,31,0,-1,-1,"Violent,Suspense,Action,Art,Drama,Romantic,Funny,Fantasy World,Science Fiction","43,64,14,39,3,1,1,38,14","22,16,91,16,31,21,71,88,76",1,,51684,2022-06-24 13:39:08,150937
60fcd2fa241e2b1d59c0c8d8,ma_choice_v4_movies_pilot2,60fcd2fa241e2b1d59c0c8d8,38,0,-1,-1,"Romantic,Drama,Funny,Art,Suspense,Fantasy World,Action,Violent,Science Fiction","8,7,1,8,56,39,79,32,35","70,76,23,30,19,14,14,1,10",0,,10623,2022-06-24 13:39:12,150938
62aa0d284ca4afc50b51e09f,ma_choice_v4_movies_pilot2,62aa0d284ca4afc50b51e09f,8,1,-1,-1,"Action,Romantic,Funny,Drama,Violent,Art,Science Fiction,Suspense,Fantasy World","3,9,1,84,26,74,22,48,34","27,35,80,12,3,8,51,12,55",1,,8007,2022-06-24 13:39:15,150939
6156498c17bdcd7cb70c420c,ma_choice_v4_movies_pilot2,6156498c17bdcd7cb70c420c,29,0,-1,-1,"Drama,Funny,Violent,Art,Science Fiction,Suspense,Action,Fantasy World,Romantic","72,1,1,-1,27,6,19,28,26","51,24,22,46,100,31,75,54,0",0,,7695,2022-06-24 13:39:17,150940
60fcd2fa241e2b1d59c0c8d8,ma_choice_v4_movies_pilot2,60fcd2fa241e2b1d59c0c8d8,39,0,-1,-1,"Science Fiction,Suspense,Fantasy World,Violent,Romantic,Art,Funny,Drama,Action","40,10,55,1,65,22,66,40,17","3,43,31,45,3,-1,4,20,84",1,,10011,2022-06-24 13:39:23,150941
6156498c17bdcd7cb70c420c,ma_choice_v4_movies_pilot2,6156498c17bdcd7cb70c420c,30,0,-1,-1,"Science Fiction,Violent,Suspense,Funny,Art,Drama,Action,Fantasy World,Romantic","22,21,3,29,90,35,3,28,11","45,54,79,6,22,15,87,51,39",0,,8331,2022-06-24 13:39:26,150942
627eb4500b7330807b6a87f7,ma_choice_v4_movies_pilot2,627eb4500b7330807b6a87f7,32,0,-1,-1,"Drama,Romantic,Art,Action,Violent,Science Fiction,Fantasy World,Suspense,Funny","55,2,62,5,75,32,40,21,1","15,25,10,92,12,7,65,55,52",1,,18275,2022-06-24 13:39:27,150943
62aa0d284ca4afc50b51e09f,ma_choice_v4_movies_pilot2,62aa0d284ca4afc50b51e09f,9,1,-1,-1,"Science Fiction,Romantic,Art,Fantasy World,Action,Drama,Funny,Suspense,Violent","51,21,23,66,56,39,64,20,27","30,75,58,39,34,61,1,54,5",0,,7607,2022-06-24 13:39:30,150944
60fcd2fa241e2b1d59c0c8d8,ma_choice_v4_movies_pilot2,60fcd2fa241e2b1d59c0c8d8,40,0,-1,-1,"Suspense,Violent,Science Fiction,Romantic,Art,Funny,Drama,Fantasy World,Action","46,76,99,10,31,43,34,76,91","20,16,3,41,3,17,69,49,12",0,,7654,2022-06-24 13:39:32,150945
6156498c17bdcd7cb70c420c,ma_choice_v4_movies_pilot2,6156498c17bdcd7cb70c420c,31,0,-1,-1,"Funny,Romantic,Science Fiction,Violent,Action,Fantasy World,Drama,Suspense,Art","1,26,15,1,3,31,74,53,65","75,0,86,21,57,80,10,9,8",0,,8350,2022-06-24 13:39:35,150946
627eb4500b7330807b6a87f7,ma_choice_v4_movies_pilot2,627eb4500b7330807b6a87f7,33,0,-1,-1,"Suspense,Drama,Science Fiction,Art,Fantasy World,Funny,Action,Romantic,Violent","33,28,46,22,58,66,23,52,13","0,56,1,94,29,1,2,2,34",0,,7450,2022-06-24 13:39:36,150947
60fcd2fa241e2b1d59c0c8d8,ma_choice_v4_movies_pilot2,60fcd2fa241e2b1d59c0c8d8,41,0,-1,-1,"Romantic,Fantasy World,Funny,Violent,Action,Suspense,Drama,Science Fiction,Art","12,50,40,78,56,78,50,83,8","55,73,8,20,4,29,20,26,34",0,,7814,2022-06-24 13:39:41,150948
6156498c17bdcd7cb70c420c,ma_choice_v4_movies_pilot2,6156498c17bdcd7cb70c420c,32,0,-1,-1,"Science Fiction,Action,Suspense,Violent,Funny,Art,Fantasy World,Drama,Romantic","17,43,18,26,60,32,38,42,3","38,21,54,1,6,1,62,11,42",1,,7830,2022-06-24 13:39:44,150949
60fcd2fa241e2b1d59c0c8d8,ma_choice_v4_movies_pilot2,60fcd2fa241e2b1d59c0c8d8,42,0,-1,-1,"Art,Violent,Suspense,Funny,Action,Drama,Romantic,Science Fiction,Fantasy World","9,44,77,11,35,19,20,89,41","70,14,14,49,3,77,0,25,63",1,,9172,2022-06-24 13:39:51,150950
6156498c17bdcd7cb70c420c,ma_choice_v4_movies_pilot2,6156498c17bdcd7cb70c420c,33,0,-1,-1,"Funny,Suspense,Fantasy World,Violent,Romantic,Action,Art,Science Fiction,Drama","4,89,66,49,37,73,23,36,75","24,3,35,1,5,3,43,15,30",1,,8113,2022-06-24 13:39:53,150951
627eb4500b7330807b6a87f7,ma_choice_v4_movies_pilot2,627eb4500b7330807b6a87f7,34,0,-1,-1,"Suspense,Fantasy World,Violent,Action,Romantic,Funny,Science Fiction,Drama,Art","10,66,15,78,37,52,45,29,4","32,39,71,15,1,1,17,70,38",0,,19016,2022-06-24 13:39:56,150952
60fcd2fa241e2b1d59c0c8d8,ma_choice_v4_movies_pilot2,60fcd2fa241e2b1d59c0c8d8,43,0,-1,-1,"Drama,Romantic,Action,Funny,Fantasy World,Suspense,Science Fiction,Violent,Art","86,25,75,52,62,69,58,4,27","20,47,5,0,41,2,18,26,80",0,,8996,2022-06-24 13:40:01,150953
6156498c17bdcd7cb70c420c,ma_choice_v4_movies_pilot2,6156498c17bdcd7cb70c420c,34,0,-1,-1,"Art,Suspense,Romantic,Fantasy World,Funny,Drama,Science Fiction,Violent,Action","7,6,49,91,37,73,42,1,18","50,57,0,37,1,33,100,85,75",0,,8408,2022-06-24 13:40:03,150954
60fcd2fa241e2b1d59c0c8d8,ma_choice_v4_movies_pilot2,60fcd2fa241e2b1d59c0c8d8,44,0,-1,-1,"Drama,Suspense,Action,Science Fiction,Violent,Romantic,Art,Fantasy World,Funny","63,48,8,22,33,3,54,32,2","4,11,56,88,1,37,15,53,37",1,,8039,2022-06-24 13:40:10,150955
627eb4500b7330807b6a87f7,ma_choice_v4_movies_pilot2,627eb4500b7330807b6a87f7,35,0,-1,-1,"Funny,Violent,Drama,Romantic,Art,Science Fiction,Fantasy World,Action,Suspense","6,2,77,5,79,10,24,10,0","65,31,19,28,1,53,46,68,24",1,,16891,2022-06-24 13:40:14,150956
6156498c17bdcd7cb70c420c,ma_choice_v4_movies_pilot2,6156498c17bdcd7cb70c420c,35,0,-1,-1,"Fantasy World,Action,Art,Romantic,Funny,Drama,Suspense,Science Fiction,Violent","41,7,43,23,10,78,80,8,2","66,92,5,3,45,21,14,52,70",0,,11252,2022-06-24 13:40:15,150957
60fcd2fa241e2b1d59c0c8d8,ma_choice_v4_movies_pilot2,60fcd2fa241e2b1d59c0c8d8,45,0,-1,-1,"Romantic,Fantasy World,Violent,Drama,Suspense,Art,Science Fiction,Action,Funny","3,38,26,42,18,32,17,43,60","42,62,1,11,54,1,38,21,6",0,,7720,2022-06-24 13:40:19,150958
6156498c17bdcd7cb70c420c,ma_choice_v4_movies_pilot2,6156498c17bdcd7cb70c420c,36,0,-1,-1,"Suspense,Funny,Action,Art,Drama,Violent,Romantic,Science Fiction,Fantasy World","61,26,5,17,52,1,0,71,23","9,3,40,42,31,97,20,0,67",0,,9638,2022-06-24 13:40:26,150959
60fcd2fa241e2b1d59c0c8d8,ma_choice_v4_movies_pilot2,60fcd2fa241e2b1d59c0c8d8,46,0,-1,-1,"Action,Art,Funny,Romantic,Violent,Suspense,Drama,Fantasy World,Science Fiction","12,33,2,22,76,77,44,24,100","39,9,63,72,16,30,7,45,36",0,,8844,2022-06-24 13:40:29,150960
627eb4500b7330807b6a87f7,ma_choice_v4_movies_pilot2,627eb4500b7330807b6a87f7,36,0,-1,-1,"Action,Suspense,Art,Violent,Romantic,Fantasy World,Science Fiction,Drama,Funny","84,73,84,16,70,24,41,23,7","57,49,15,38,32,60,13,68,33",1,,16506,2022-06-24 13:40:31,150961
6156498c17bdcd7cb70c420c,ma_choice_v4_movies_pilot2,6156498c17bdcd7cb70c420c,37,0,-1,-1,"Funny,Art,Violent,Drama,Romantic,Fantasy World,Science Fiction,Suspense,Action","66,18,4,9,89,46,29,8,23","0,89,40,65,0,15,5,40,2",0,,7667,2022-06-24 13:40:34,150962
60fcd2fa241e2b1d59c0c8d8,ma_choice_v4_movies_pilot2,60fcd2fa241e2b1d59c0c8d8,47,0,-1,-1,"Funny,Fantasy World,Science Fiction,Violent,Art,Romantic,Suspense,Action,Drama","23,49,22,54,0,4,2,33,44","0,23,2,10,62,27,78,9,15",1,,8053,2022-06-24 13:40:38,150963
62aa0d284ca4afc50b51e09f,ma_choice_v4_movies_pilot2,62aa0d284ca4afc50b51e09f,0,0,-1,-1,"Violent,Drama,Art,Fantasy World,Funny,Romantic,Action,Science Fiction,Suspense","10,78,42,35,54,54,41,17,53","57,12,9,60,17,2,5,39,25",0,,8032,2022-06-24 13:40:38,150964
6156498c17bdcd7cb70c420c,ma_choice_v4_movies_pilot2,6156498c17bdcd7cb70c420c,38,0,-1,-1,"Funny,Suspense,Violent,Art,Science Fiction,Fantasy World,Romantic,Drama,Action","9,30,75,84,49,62,47,76,8","43,62,7,36,100,38,14,36,84",1,,7728,2022-06-24 13:40:43,150965
