subject,version,assignmentId,trial,attribute,rating,least_preferred,most_preferred,type,rt,rt2,full_or_lex,signed_weights,original_or_followup,stamp,id
5e34bbfdd87fbf4a5001b133,ma_choice_v4_pilot2,5e34bbfdd87fbf4a5001b133,0,Year building was built,1,,,lex_att_rating,5462,,,,,2022-05-23 11:54:05,10446
5e34bbfdd87fbf4a5001b133,ma_choice_v4_pilot2,5e34bbfdd87fbf4a5001b133,10,Amount of traffic,0,,,wad_att_rating,8827,,,,,2022-05-23 11:54:18,10447
5e34bbfdd87fbf4a5001b133,ma_choice_v4_pilot2,5e34bbfdd87fbf4a5001b133,5,Amount of natural light,0,,,wad_att_rating,7049,,,,,2022-05-23 11:54:25,10448
5e34bbfdd87fbf4a5001b133,ma_choice_v4_pilot2,5e34bbfdd87fbf4a5001b133,9,Quality of heat/AC system,1,,,wad_att_rating,4865,,,,,2022-05-23 11:54:30,10449
5e34bbfdd87fbf4a5001b133,ma_choice_v4_pilot2,5e34bbfdd87fbf4a5001b133,1,Closeness to cafes/restaurants,2,,,wad_att_rating,4580,,,,,2022-05-23 11:54:35,10450
5e34bbfdd87fbf4a5001b133,ma_choice_v4_pilot2,5e34bbfdd87fbf4a5001b133,11,Size of home,1,,,wad_att_rating,3347,,,,,2022-05-23 11:54:38,10451
5e34bbfdd87fbf4a5001b133,ma_choice_v4_pilot2,5e34bbfdd87fbf4a5001b133,6,Year building was built,100,,,wad_att_rating,4802,,,,,2022-05-23 11:54:43,10452
5e34bbfdd87fbf4a5001b133,ma_choice_v4_pilot2,5e34bbfdd87fbf4a5001b133,3,Noise pollution,0,,,wad_att_rating,4602,,,,,2022-05-23 11:54:48,10453
5e34bbfdd87fbf4a5001b133,ma_choice_v4_pilot2,5e34bbfdd87fbf4a5001b133,8,Quality of kitchen,0,,,wad_att_rating,2659,,,,,2022-05-23 11:54:50,10454
5e34bbfdd87fbf4a5001b133,ma_choice_v4_pilot2,5e34bbfdd87fbf4a5001b133,7,Size of yard,1,,,wad_att_rating,4042,,,,,2022-05-23 11:54:54,10455
5e34bbfdd87fbf4a5001b133,ma_choice_v4_pilot2,5e34bbfdd87fbf4a5001b133,2,Closeness to public transportation,1,,,wad_att_rating,3464,,,,,2022-05-23 11:54:58,10456
5e34bbfdd87fbf4a5001b133,ma_choice_v4_pilot2,5e34bbfdd87fbf4a5001b133,4,Reputation of closest school,0,,,wad_att_rating,3507,,,,,2022-05-23 11:55:01,10457
5e34bbfdd87fbf4a5001b133,ma_choice_v4_pilot2,5e34bbfdd87fbf4a5001b133,0,Closeness to parks,0,,,wad_att_rating,3322,,,,,2022-05-23 11:55:05,10458
5e34bbfdd87fbf4a5001b133,ma_choice_v4_pilot2,5e34bbfdd87fbf4a5001b133,0,Year building was built,1,,,ew_att_rating,7755,,,,,2022-05-23 11:55:16,10459
5e34bbfdd87fbf4a5001b133,ma_choice_v4_pilot2,5e34bbfdd87fbf4a5001b133,1,Closeness to cafes/restaurants,-1,30 min away,10 min away,direction,3939,,,,,2022-05-23 12:01:43,10460
5e34bbfdd87fbf4a5001b133,ma_choice_v4_pilot2,5e34bbfdd87fbf4a5001b133,10,Amount of traffic,-1,Very Little,Very Little,direction,7492,,,,,2022-05-23 12:04:32,10461
5e34bbfdd87fbf4a5001b133,ma_choice_v4_pilot2,5e34bbfdd87fbf4a5001b133,3,Noise pollution,-1,Very Low,Very Low,direction,3354,,,,,2022-05-23 12:04:40,10462
5e34bbfdd87fbf4a5001b133,ma_choice_v4_pilot2,5e34bbfdd87fbf4a5001b133,11,Size of home,-1,1200 square feet,600 square feet,direction,2547,,,,,2022-05-23 12:04:55,10463
5e34bbfdd87fbf4a5001b133,ma_choice_v4_pilot2,5e34bbfdd87fbf4a5001b133,9,Quality of heat/AC system,-1,Moderate,Very Bad,direction,5300,,,,,2022-05-23 12:05:07,10464
5e34bbfdd87fbf4a5001b133,ma_choice_v4_pilot2,5e34bbfdd87fbf4a5001b133,4,Reputation of closest school,-1,Moderate,Very Bad,direction,5004,,,,,2022-05-23 12:05:16,10465
5e34bbfdd87fbf4a5001b133,ma_choice_v4_pilot2,5e34bbfdd87fbf4a5001b133,2,Closeness to public transportation,-1,30 min away,10 min away,direction,4923,,,,,2022-05-23 12:05:25,10466
5e34bbfdd87fbf4a5001b133,ma_choice_v4_pilot2,5e34bbfdd87fbf4a5001b133,6,Year building was built,-1,2020,1950,direction,2468,,,,,2022-05-23 12:05:31,10467
5e34bbfdd87fbf4a5001b133,ma_choice_v4_pilot2,5e34bbfdd87fbf4a5001b133,7,Size of yard,-1,600 square feet,0 square feet,direction,4307,,,,,2022-05-23 12:05:43,10468
5e34bbfdd87fbf4a5001b133,ma_choice_v4_pilot2,5e34bbfdd87fbf4a5001b133,0,Closeness to parks,-1,30 min away,10 min away,direction,2309,,,,,2022-05-23 12:05:49,10469
5e34bbfdd87fbf4a5001b133,ma_choice_v4_pilot2,5e34bbfdd87fbf4a5001b133,8,Quality of kitchen,-1,Moderate,Very Bad,direction,3459,,,,,2022-05-23 12:05:59,10470
5e34bbfdd87fbf4a5001b133,ma_choice_v4_pilot2,5e34bbfdd87fbf4a5001b133,5,Amount of natural light,-1,A Moderate Amount,Very Little,direction,3355,,,,,2022-05-23 12:06:07,10471
5ba4acc91fadfd0001af046d,ma_choice_v4_pilot2,5ba4acc91fadfd0001af046d,0,Amount of natural light,1,,,ew_att_rating,31003,,,,,2022-05-23 12:14:17,10472
5ba4acc91fadfd0001af046d,ma_choice_v4_pilot2,5ba4acc91fadfd0001af046d,0,Year building was built,1,,,ew_att_rating,31003,,,,,2022-05-23 12:14:17,10473
5ba4acc91fadfd0001af046d,ma_choice_v4_pilot2,5ba4acc91fadfd0001af046d,0,Quality of heat/AC system,1,,,ew_att_rating,31003,,,,,2022-05-23 12:14:17,10474
5ba4acc91fadfd0001af046d,ma_choice_v4_pilot2,5ba4acc91fadfd0001af046d,0,Quality of kitchen,1,,,ew_att_rating,31003,,,,,2022-05-23 12:14:17,10475
5ba4acc91fadfd0001af046d,ma_choice_v4_pilot2,5ba4acc91fadfd0001af046d,0,Size of home,1,,,ew_att_rating,31003,,,,,2022-05-23 12:14:17,10476
5ba4acc91fadfd0001af046d,ma_choice_v4_pilot2,5ba4acc91fadfd0001af046d,5,Amount of natural light,36,,,wad_att_rating,10214,,,,,2022-05-23 12:14:32,10477
5ba4acc91fadfd0001af046d,ma_choice_v4_pilot2,5ba4acc91fadfd0001af046d,3,Noise pollution,11,,,wad_att_rating,5038,,,,,2022-05-23 12:14:37,10478
5ba4acc91fadfd0001af046d,ma_choice_v4_pilot2,5ba4acc91fadfd0001af046d,11,Size of home,48,,,wad_att_rating,7142,,,,,2022-05-23 12:14:44,10479
5ba4acc91fadfd0001af046d,ma_choice_v4_pilot2,5ba4acc91fadfd0001af046d,0,Closeness to parks,0,,,wad_att_rating,3414,,,,,2022-05-23 12:14:47,10480
5ba4acc91fadfd0001af046d,ma_choice_v4_pilot2,5ba4acc91fadfd0001af046d,1,Closeness to cafes/restaurants,0,,,wad_att_rating,4742,,,,,2022-05-23 12:14:52,10481
5ba4acc91fadfd0001af046d,ma_choice_v4_pilot2,5ba4acc91fadfd0001af046d,7,Size of yard,0,,,wad_att_rating,3750,,,,,2022-05-23 12:14:56,10482
5ba4acc91fadfd0001af046d,ma_choice_v4_pilot2,5ba4acc91fadfd0001af046d,9,Quality of heat/AC system,87,,,wad_att_rating,4702,,,,,2022-05-23 12:15:01,10483
5ba4acc91fadfd0001af046d,ma_choice_v4_pilot2,5ba4acc91fadfd0001af046d,2,Closeness to public transportation,12,,,wad_att_rating,6366,,,,,2022-05-23 12:15:07,10484
5ba4acc91fadfd0001af046d,ma_choice_v4_pilot2,5ba4acc91fadfd0001af046d,6,Year building was built,74,,,wad_att_rating,7590,,,,,2022-05-23 12:15:15,10485
5ba4acc91fadfd0001af046d,ma_choice_v4_pilot2,5ba4acc91fadfd0001af046d,10,Amount of traffic,12,,,wad_att_rating,4390,,,,,2022-05-23 12:15:19,10486
5ba4acc91fadfd0001af046d,ma_choice_v4_pilot2,5ba4acc91fadfd0001af046d,8,Quality of kitchen,88,,,wad_att_rating,4054,,,,,2022-05-23 12:15:23,10487
5ba4acc91fadfd0001af046d,ma_choice_v4_pilot2,5ba4acc91fadfd0001af046d,4,Reputation of closest school,0,,,wad_att_rating,2742,,,,,2022-05-23 12:15:26,10488
5ba4acc91fadfd0001af046d,ma_choice_v4_pilot2,5ba4acc91fadfd0001af046d,0,Quality of heat/AC system,1,,,lex_att_rating,12431,,,,,2022-05-23 12:15:50,10489
605733fb52820cc2a723fea3,ma_choice_v4_pilot2,605733fb52820cc2a723fea3,0,Noise pollution,1,,,ew_att_rating,7901,,,,,2022-05-23 12:22:06,10490
605733fb52820cc2a723fea3,ma_choice_v4_pilot2,605733fb52820cc2a723fea3,0,Quality of heat/AC system,1,,,ew_att_rating,7901,,,,,2022-05-23 12:22:06,10491
605733fb52820cc2a723fea3,ma_choice_v4_pilot2,605733fb52820cc2a723fea3,8,Quality of kitchen,0,,,wad_att_rating,6478,,,,,2022-05-23 12:22:18,10492
605733fb52820cc2a723fea3,ma_choice_v4_pilot2,605733fb52820cc2a723fea3,1,Closeness to cafes/restaurants,0,,,wad_att_rating,12894,,,,,2022-05-23 12:22:31,10493
605733fb52820cc2a723fea3,ma_choice_v4_pilot2,605733fb52820cc2a723fea3,4,Reputation of closest school,0,,,wad_att_rating,3350,,,,,2022-05-23 12:22:35,10494
605733fb52820cc2a723fea3,ma_choice_v4_pilot2,605733fb52820cc2a723fea3,6,Year building was built,0,,,wad_att_rating,2982,,,,,2022-05-23 12:22:38,10495
605733fb52820cc2a723fea3,ma_choice_v4_pilot2,605733fb52820cc2a723fea3,3,Noise pollution,49,,,wad_att_rating,10710,,,,,2022-05-23 12:22:48,10496
605733fb52820cc2a723fea3,ma_choice_v4_pilot2,605733fb52820cc2a723fea3,7,Size of yard,0,,,wad_att_rating,2726,,,,,2022-05-23 12:22:51,10497
605733fb52820cc2a723fea3,ma_choice_v4_pilot2,605733fb52820cc2a723fea3,2,Closeness to public transportation,0,,,wad_att_rating,3151,,,,,2022-05-23 12:22:54,10498
605733fb52820cc2a723fea3,ma_choice_v4_pilot2,605733fb52820cc2a723fea3,5,Amount of natural light,0,,,wad_att_rating,2159,,,,,2022-05-23 12:22:56,10499
605733fb52820cc2a723fea3,ma_choice_v4_pilot2,605733fb52820cc2a723fea3,9,Quality of heat/AC system,100,,,wad_att_rating,2879,,,,,2022-05-23 12:22:59,10500
605733fb52820cc2a723fea3,ma_choice_v4_pilot2,605733fb52820cc2a723fea3,10,Amount of traffic,0,,,wad_att_rating,2623,,,,,2022-05-23 12:23:02,10501
605733fb52820cc2a723fea3,ma_choice_v4_pilot2,605733fb52820cc2a723fea3,0,Closeness to parks,0,,,wad_att_rating,2374,,,,,2022-05-23 12:23:04,10502
605733fb52820cc2a723fea3,ma_choice_v4_pilot2,605733fb52820cc2a723fea3,11,Size of home,0,,,wad_att_rating,2598,,,,,2022-05-23 12:23:07,10503
5ba4acc91fadfd0001af046d,ma_choice_v4_pilot2,5ba4acc91fadfd0001af046d,6,Year building was built,-1,2020,1950,direction,3196,,,,,2022-05-23 12:23:08,10504
5ba4acc91fadfd0001af046d,ma_choice_v4_pilot2,5ba4acc91fadfd0001af046d,0,Closeness to parks,-1,10 min away,30 min away,direction,2524,,,,,2022-05-23 12:23:21,10505
605733fb52820cc2a723fea3,ma_choice_v4_pilot2,605733fb52820cc2a723fea3,0,Quality of heat/AC system,1,,,lex_att_rating,5863,,,,,2022-05-23 12:23:26,10506
5ba4acc91fadfd0001af046d,ma_choice_v4_pilot2,5ba4acc91fadfd0001af046d,7,Size of yard,-1,300 square feet,600 square feet,direction,3196,,,,,2022-05-23 12:23:34,10507
5ba4acc91fadfd0001af046d,ma_choice_v4_pilot2,5ba4acc91fadfd0001af046d,4,Reputation of closest school,-1,Very Good,Very Bad,direction,2812,,,,,2022-05-23 12:23:41,10508
5ba4acc91fadfd0001af046d,ma_choice_v4_pilot2,5ba4acc91fadfd0001af046d,9,Quality of heat/AC system,-1,Very Good,Very Bad,direction,1788,,,,,2022-05-23 12:23:45,10509
5ba4acc91fadfd0001af046d,ma_choice_v4_pilot2,5ba4acc91fadfd0001af046d,11,Size of home,-1,1800 square feet,600 square feet,direction,1428,,,,,2022-05-23 12:23:51,10510
5ba4acc91fadfd0001af046d,ma_choice_v4_pilot2,5ba4acc91fadfd0001af046d,2,Closeness to public transportation,-1,10 min away,30 min away,direction,1788,,,,,2022-05-23 12:23:56,10511
5ba4acc91fadfd0001af046d,ma_choice_v4_pilot2,5ba4acc91fadfd0001af046d,1,Closeness to cafes/restaurants,-1,15 min away,30 min away,direction,4116,,,,,2022-05-23 12:24:04,10512
5ba4acc91fadfd0001af046d,ma_choice_v4_pilot2,5ba4acc91fadfd0001af046d,3,Noise pollution,-1,Very Low,Very High,direction,2260,,,,,2022-05-23 12:24:14,10513
5ba4acc91fadfd0001af046d,ma_choice_v4_pilot2,5ba4acc91fadfd0001af046d,10,Amount of traffic,-1,A Little,A Lot,direction,2860,,,,,2022-05-23 12:24:18,10514
5ba4acc91fadfd0001af046d,ma_choice_v4_pilot2,5ba4acc91fadfd0001af046d,8,Quality of kitchen,-1,Very Good,Very Bad,direction,1740,,,,,2022-05-23 12:24:22,10515
5ba4acc91fadfd0001af046d,ma_choice_v4_pilot2,5ba4acc91fadfd0001af046d,5,Amount of natural light,-1,A Lot,Very Little,direction,1436,,,,,2022-05-23 12:24:33,10516
5fb5611ae70d1603f68b026a,ma_choice_v4_pilot2,5fb5611ae70d1603f68b026a,0,Size of yard,1,,,ew_att_rating,17262,,,,,2022-05-23 12:25:29,10517
5fb5611ae70d1603f68b026a,ma_choice_v4_pilot2,5fb5611ae70d1603f68b026a,0,Quality of kitchen,1,,,ew_att_rating,17262,,,,,2022-05-23 12:25:29,10518
5fb5611ae70d1603f68b026a,ma_choice_v4_pilot2,5fb5611ae70d1603f68b026a,0,Quality of heat/AC system,1,,,ew_att_rating,17262,,,,,2022-05-23 12:25:29,10519
5fb5611ae70d1603f68b026a,ma_choice_v4_pilot2,5fb5611ae70d1603f68b026a,0,Amount of traffic,1,,,ew_att_rating,17262,,,,,2022-05-23 12:25:29,10520
5fb5611ae70d1603f68b026a,ma_choice_v4_pilot2,5fb5611ae70d1603f68b026a,0,Amount of traffic,1,,,lex_att_rating,2574,,,,,2022-05-23 12:25:36,10521
5fb5611ae70d1603f68b026a,ma_choice_v4_pilot2,5fb5611ae70d1603f68b026a,5,Amount of natural light,0,,,wad_att_rating,3567,,,,,2022-05-23 12:25:45,10522
5fb5611ae70d1603f68b026a,ma_choice_v4_pilot2,5fb5611ae70d1603f68b026a,10,Amount of traffic,100,,,wad_att_rating,3245,,,,,2022-05-23 12:25:48,10523
5fb5611ae70d1603f68b026a,ma_choice_v4_pilot2,5fb5611ae70d1603f68b026a,7,Size of yard,24,,,wad_att_rating,2613,,,,,2022-05-23 12:25:51,10524
5fb5611ae70d1603f68b026a,ma_choice_v4_pilot2,5fb5611ae70d1603f68b026a,2,Closeness to public transportation,0,,,wad_att_rating,2102,,,,,2022-05-23 12:25:53,10525
5fb5611ae70d1603f68b026a,ma_choice_v4_pilot2,5fb5611ae70d1603f68b026a,8,Quality of kitchen,62,,,wad_att_rating,3948,,,,,2022-05-23 12:25:57,10526
5fb5611ae70d1603f68b026a,ma_choice_v4_pilot2,5fb5611ae70d1603f68b026a,11,Size of home,0,,,wad_att_rating,4533,,,,,2022-05-23 12:26:02,10527
5fb5611ae70d1603f68b026a,ma_choice_v4_pilot2,5fb5611ae70d1603f68b026a,1,Closeness to cafes/restaurants,0,,,wad_att_rating,3070,,,,,2022-05-23 12:26:05,10528
5fb5611ae70d1603f68b026a,ma_choice_v4_pilot2,5fb5611ae70d1603f68b026a,6,Year building was built,0,,,wad_att_rating,2879,,,,,2022-05-23 12:26:07,10529
5fb5611ae70d1603f68b026a,ma_choice_v4_pilot2,5fb5611ae70d1603f68b026a,4,Reputation of closest school,0,,,wad_att_rating,2669,,,,,2022-05-23 12:26:10,10530
5fb5611ae70d1603f68b026a,ma_choice_v4_pilot2,5fb5611ae70d1603f68b026a,0,Closeness to parks,0,,,wad_att_rating,2541,,,,,2022-05-23 12:26:13,10531
5fb5611ae70d1603f68b026a,ma_choice_v4_pilot2,5fb5611ae70d1603f68b026a,3,Noise pollution,0,,,wad_att_rating,2764,,,,,2022-05-23 12:26:15,10532
5fb5611ae70d1603f68b026a,ma_choice_v4_pilot2,5fb5611ae70d1603f68b026a,9,Quality of heat/AC system,48,,,wad_att_rating,3782,,,,,2022-05-23 12:26:19,10533
5fb5611ae70d1603f68b026a,ma_choice_v4_pilot2,5fb5611ae70d1603f68b026a,9,Quality of heat/AC system,-1,Very Good,Very Bad,direction,2726,,,,,2022-05-23 12:27:04,10534
5fb5611ae70d1603f68b026a,ma_choice_v4_pilot2,5fb5611ae70d1603f68b026a,1,Closeness to cafes/restaurants,-1,10 min away,30 min away,direction,1828,,,,,2022-05-23 12:27:10,10535
5fb5611ae70d1603f68b026a,ma_choice_v4_pilot2,5fb5611ae70d1603f68b026a,11,Size of home,-1,1200 square feet,600 square feet,direction,5501,,,,,2022-05-23 12:27:19,10536
5fb5611ae70d1603f68b026a,ma_choice_v4_pilot2,5fb5611ae70d1603f68b026a,2,Closeness to public transportation,-1,10 min away,30 min away,direction,1831,,,,,2022-05-23 12:27:24,10537
5fb5611ae70d1603f68b026a,ma_choice_v4_pilot2,5fb5611ae70d1603f68b026a,5,Amount of natural light,-1,A Moderate Amount,Very Little,direction,2869,,,,,2022-05-23 12:27:30,10538
5fb5611ae70d1603f68b026a,ma_choice_v4_pilot2,5fb5611ae70d1603f68b026a,4,Reputation of closest school,-1,Very Good,Very Bad,direction,1493,,,,,2022-05-23 12:27:36,10539
5fb5611ae70d1603f68b026a,ma_choice_v4_pilot2,5fb5611ae70d1603f68b026a,10,Amount of traffic,-1,Very Little,A Lot,direction,2710,,,,,2022-05-23 12:27:41,10540
5fb5611ae70d1603f68b026a,ma_choice_v4_pilot2,5fb5611ae70d1603f68b026a,6,Year building was built,-1,2020,1950,direction,1446,,,,,2022-05-23 12:27:46,10541
5fb5611ae70d1603f68b026a,ma_choice_v4_pilot2,5fb5611ae70d1603f68b026a,7,Size of yard,-1,600 square feet,0 square feet,direction,1174,,,,,2022-05-23 12:27:50,10542
5fb5611ae70d1603f68b026a,ma_choice_v4_pilot2,5fb5611ae70d1603f68b026a,8,Quality of kitchen,-1,Very Good,Very Bad,direction,1406,,,,,2022-05-23 12:27:53,10543
5fb5611ae70d1603f68b026a,ma_choice_v4_pilot2,5fb5611ae70d1603f68b026a,3,Noise pollution,-1,Very Low,Very High,direction,1750,,,,,2022-05-23 12:27:58,10544
5fb5611ae70d1603f68b026a,ma_choice_v4_pilot2,5fb5611ae70d1603f68b026a,0,Closeness to parks,-1,10 min away,30 min away,direction,1925,,,,,2022-05-23 12:28:02,10545
5aeb9cdeaa05510001ff624e,ma_choice_v4_pilot2,5aeb9cdeaa05510001ff624e,0,Closeness to parks,1,,,ew_att_rating,31950,,,,,2022-05-23 12:31:49,10546
5aeb9cdeaa05510001ff624e,ma_choice_v4_pilot2,5aeb9cdeaa05510001ff624e,0,Noise pollution,1,,,ew_att_rating,31950,,,,,2022-05-23 12:31:49,10547
5aeb9cdeaa05510001ff624e,ma_choice_v4_pilot2,5aeb9cdeaa05510001ff624e,0,Reputation of closest school,1,,,ew_att_rating,31950,,,,,2022-05-23 12:31:49,10548
5aeb9cdeaa05510001ff624e,ma_choice_v4_pilot2,5aeb9cdeaa05510001ff624e,0,Quality of kitchen,1,,,ew_att_rating,31950,,,,,2022-05-23 12:31:49,10549
5aeb9cdeaa05510001ff624e,ma_choice_v4_pilot2,5aeb9cdeaa05510001ff624e,9,Quality of heat/AC system,2,,,wad_att_rating,4927,,,,,2022-05-23 12:32:00,10550
5aeb9cdeaa05510001ff624e,ma_choice_v4_pilot2,5aeb9cdeaa05510001ff624e,2,Closeness to public transportation,3,,,wad_att_rating,3513,,,,,2022-05-23 12:32:03,10551
5aeb9cdeaa05510001ff624e,ma_choice_v4_pilot2,5aeb9cdeaa05510001ff624e,8,Quality of kitchen,90,,,wad_att_rating,3705,,,,,2022-05-23 12:32:07,10552
5aeb9cdeaa05510001ff624e,ma_choice_v4_pilot2,5aeb9cdeaa05510001ff624e,4,Reputation of closest school,100,,,wad_att_rating,3761,,,,,2022-05-23 12:32:11,10553
5aeb9cdeaa05510001ff624e,ma_choice_v4_pilot2,5aeb9cdeaa05510001ff624e,1,Closeness to cafes/restaurants,5,,,wad_att_rating,4811,,,,,2022-05-23 12:32:16,10554
5aeb9cdeaa05510001ff624e,ma_choice_v4_pilot2,5aeb9cdeaa05510001ff624e,7,Size of yard,1,,,wad_att_rating,3785,,,,,2022-05-23 12:32:19,10555
5aeb9cdeaa05510001ff624e,ma_choice_v4_pilot2,5aeb9cdeaa05510001ff624e,11,Size of home,2,,,wad_att_rating,2720,,,,,2022-05-23 12:32:22,10556
5aeb9cdeaa05510001ff624e,ma_choice_v4_pilot2,5aeb9cdeaa05510001ff624e,6,Year building was built,1,,,wad_att_rating,3224,,,,,2022-05-23 12:32:25,10557
5aeb9cdeaa05510001ff624e,ma_choice_v4_pilot2,5aeb9cdeaa05510001ff624e,10,Amount of traffic,6,,,wad_att_rating,2983,,,,,2022-05-23 12:32:28,10558
5aeb9cdeaa05510001ff624e,ma_choice_v4_pilot2,5aeb9cdeaa05510001ff624e,3,Noise pollution,61,,,wad_att_rating,3488,,,,,2022-05-23 12:32:32,10559
5aeb9cdeaa05510001ff624e,ma_choice_v4_pilot2,5aeb9cdeaa05510001ff624e,0,Closeness to parks,63,,,wad_att_rating,3683,,,,,2022-05-23 12:32:35,10560
5aeb9cdeaa05510001ff624e,ma_choice_v4_pilot2,5aeb9cdeaa05510001ff624e,5,Amount of natural light,25,,,wad_att_rating,3913,,,,,2022-05-23 12:32:39,10561
5aeb9cdeaa05510001ff624e,ma_choice_v4_pilot2,5aeb9cdeaa05510001ff624e,0,Reputation of closest school,1,,,lex_att_rating,8298,,,,,2022-05-23 12:33:02,10562
5aeb9cdeaa05510001ff624e,ma_choice_v4_pilot2,5aeb9cdeaa05510001ff624e,0,Closeness to parks,-1,20 min away,30 min away,direction,9304,,,,,2022-05-23 12:34:19,10563
605733fb52820cc2a723fea3,ma_choice_v4_pilot2,605733fb52820cc2a723fea3,7,Size of yard,-1,600 square feet,0 square feet,direction,4812,,,,,2022-05-23 12:34:29,10564
5aeb9cdeaa05510001ff624e,ma_choice_v4_pilot2,5aeb9cdeaa05510001ff624e,8,Quality of kitchen,-1,Very Good,Very Bad,direction,8754,,,,,2022-05-23 12:34:34,10565
605733fb52820cc2a723fea3,ma_choice_v4_pilot2,605733fb52820cc2a723fea3,2,Closeness to public transportation,-1,10 min away,30 min away,direction,4195,,,,,2022-05-23 12:34:40,10566
5aeb9cdeaa05510001ff624e,ma_choice_v4_pilot2,5aeb9cdeaa05510001ff624e,4,Reputation of closest school,-1,Very Good,Very Bad,direction,4323,,,,,2022-05-23 12:34:42,10567
605733fb52820cc2a723fea3,ma_choice_v4_pilot2,605733fb52820cc2a723fea3,10,Amount of traffic,-1,Very Little,A Lot,direction,3116,,,,,2022-05-23 12:34:48,10568
5aeb9cdeaa05510001ff624e,ma_choice_v4_pilot2,5aeb9cdeaa05510001ff624e,7,Size of yard,-1,300 square feet,0 square feet,direction,2945,,,,,2022-05-23 12:34:51,10569
605733fb52820cc2a723fea3,ma_choice_v4_pilot2,605733fb52820cc2a723fea3,11,Size of home,-1,1800 square feet,600 square feet,direction,2324,,,,,2022-05-23 12:34:53,10570
605733fb52820cc2a723fea3,ma_choice_v4_pilot2,605733fb52820cc2a723fea3,8,Quality of kitchen,-1,Very Good,Very Bad,direction,1980,,,,,2022-05-23 12:34:58,10571
5aeb9cdeaa05510001ff624e,ma_choice_v4_pilot2,5aeb9cdeaa05510001ff624e,11,Size of home,-1,1800 square feet,600 square feet,direction,3209,,,,,2022-05-23 12:35:00,10572
605733fb52820cc2a723fea3,ma_choice_v4_pilot2,605733fb52820cc2a723fea3,6,Year building was built,-1,2020,1950,direction,2220,,,,,2022-05-23 12:35:03,10573
5aeb9cdeaa05510001ff624e,ma_choice_v4_pilot2,5aeb9cdeaa05510001ff624e,6,Year building was built,-1,2020,1950,direction,2095,,,,,2022-05-23 12:35:06,10574
605733fb52820cc2a723fea3,ma_choice_v4_pilot2,605733fb52820cc2a723fea3,9,Quality of heat/AC system,-1,Very Good,Very Bad,direction,2164,,,,,2022-05-23 12:35:08,10575
605733fb52820cc2a723fea3,ma_choice_v4_pilot2,605733fb52820cc2a723fea3,5,Amount of natural light,-1,A Lot,Very Little,direction,1636,,,,,2022-05-23 12:35:13,10576
5aeb9cdeaa05510001ff624e,ma_choice_v4_pilot2,5aeb9cdeaa05510001ff624e,10,Amount of traffic,-1,Very Little,A Lot,direction,3217,,,,,2022-05-23 12:35:15,10577
605733fb52820cc2a723fea3,ma_choice_v4_pilot2,605733fb52820cc2a723fea3,0,Closeness to parks,-1,10 min away,30 min away,direction,2100,,,,,2022-05-23 12:35:19,10578
605733fb52820cc2a723fea3,ma_choice_v4_pilot2,605733fb52820cc2a723fea3,4,Reputation of closest school,-1,Very Good,Very Bad,direction,1884,,,,,2022-05-23 12:35:26,10579
605733fb52820cc2a723fea3,ma_choice_v4_pilot2,605733fb52820cc2a723fea3,1,Closeness to cafes/restaurants,-1,10 min away,30 min away,direction,2268,,,,,2022-05-23 12:35:31,10580
5aeb9cdeaa05510001ff624e,ma_choice_v4_pilot2,5aeb9cdeaa05510001ff624e,2,Closeness to public transportation,-1,30 min away,10 min away,direction,7545,,,,,2022-05-23 12:35:35,10581
605733fb52820cc2a723fea3,ma_choice_v4_pilot2,605733fb52820cc2a723fea3,3,Noise pollution,-1,Very Low,Very High,direction,2876,,,,,2022-05-23 12:35:37,10582
5aeb9cdeaa05510001ff624e,ma_choice_v4_pilot2,5aeb9cdeaa05510001ff624e,9,Quality of heat/AC system,-1,Very Good,Very Bad,direction,2201,,,,,2022-05-23 12:35:42,10583
5aeb9cdeaa05510001ff624e,ma_choice_v4_pilot2,5aeb9cdeaa05510001ff624e,1,Closeness to cafes/restaurants,-1,10 min away,30 min away,direction,4219,,,,,2022-05-23 12:35:53,10584
5aeb9cdeaa05510001ff624e,ma_choice_v4_pilot2,5aeb9cdeaa05510001ff624e,3,Noise pollution,-1,Very Low,Very High,direction,2666,,,,,2022-05-23 12:36:00,10585
5aeb9cdeaa05510001ff624e,ma_choice_v4_pilot2,5aeb9cdeaa05510001ff624e,5,Amount of natural light,-1,A Lot,Very Little,direction,2049,,,,,2022-05-23 12:36:06,10586
5e6fd38fe95be7071b5196bf,ma_choice_v4_pilot2,5e6fd38fe95be7071b5196bf,10,Amount of traffic,100,,,wad_att_rating,16311,,,,,2022-05-23 12:45:14,10587
5e6fd38fe95be7071b5196bf,ma_choice_v4_pilot2,5e6fd38fe95be7071b5196bf,0,Closeness to parks,74,,,wad_att_rating,8374,,,,,2022-05-23 12:45:21,10588
5e6fd38fe95be7071b5196bf,ma_choice_v4_pilot2,5e6fd38fe95be7071b5196bf,9,Quality of heat/AC system,62,,,wad_att_rating,5111,,,,,2022-05-23 12:45:26,10589
5e6fd38fe95be7071b5196bf,ma_choice_v4_pilot2,5e6fd38fe95be7071b5196bf,6,Year building was built,63,,,wad_att_rating,5853,,,,,2022-05-23 12:45:32,10590
5e6fd38fe95be7071b5196bf,ma_choice_v4_pilot2,5e6fd38fe95be7071b5196bf,7,Size of yard,25,,,wad_att_rating,5165,,,,,2022-05-23 12:45:37,10591
5e6fd38fe95be7071b5196bf,ma_choice_v4_pilot2,5e6fd38fe95be7071b5196bf,1,Closeness to cafes/restaurants,37,,,wad_att_rating,5133,,,,,2022-05-23 12:45:44,10592
5e6fd38fe95be7071b5196bf,ma_choice_v4_pilot2,5e6fd38fe95be7071b5196bf,2,Closeness to public transportation,12,,,wad_att_rating,4758,,,,,2022-05-23 12:45:47,10593
5e6fd38fe95be7071b5196bf,ma_choice_v4_pilot2,5e6fd38fe95be7071b5196bf,5,Amount of natural light,51,,,wad_att_rating,4349,,,,,2022-05-23 12:45:51,10594
5e6fd38fe95be7071b5196bf,ma_choice_v4_pilot2,5e6fd38fe95be7071b5196bf,11,Size of home,62,,,wad_att_rating,3822,,,,,2022-05-23 12:45:55,10595
5e6fd38fe95be7071b5196bf,ma_choice_v4_pilot2,5e6fd38fe95be7071b5196bf,4,Reputation of closest school,25,,,wad_att_rating,4814,,,,,2022-05-23 12:46:00,10596
5e6fd38fe95be7071b5196bf,ma_choice_v4_pilot2,5e6fd38fe95be7071b5196bf,3,Noise pollution,100,,,wad_att_rating,3079,,,,,2022-05-23 12:46:03,10597
5e6fd38fe95be7071b5196bf,ma_choice_v4_pilot2,5e6fd38fe95be7071b5196bf,8,Quality of kitchen,25,,,wad_att_rating,4909,,,,,2022-05-23 12:46:08,10598
5e6fd38fe95be7071b5196bf,ma_choice_v4_pilot2,5e6fd38fe95be7071b5196bf,0,Noise pollution,1,,,lex_att_rating,21952,,,,,2022-05-23 12:46:45,10599
5e6fd38fe95be7071b5196bf,ma_choice_v4_pilot2,5e6fd38fe95be7071b5196bf,0,Noise pollution,1,,,ew_att_rating,17208,,,,,2022-05-23 12:47:12,10600
607ec28e6a0bde56a9d69ddc,ma_choice_v4_pilot2,607ec28e6a0bde56a9d69ddc,2,Closeness to public transportation,0,,,wad_att_rating,16478,,,,,2022-05-23 12:52:50,10601
5f5797c54d47e72494ff5840,ma_choice_v4_pilot2,5f5797c54d47e72494ff5840,5,Amount of natural light,20,,,wad_att_rating,4805,,,,,2022-05-23 12:52:51,10602
5f5797c54d47e72494ff5840,ma_choice_v4_pilot2,5f5797c54d47e72494ff5840,1,Closeness to cafes/restaurants,100,,,wad_att_rating,3131,,,,,2022-05-23 12:52:54,10603
5f5797c54d47e72494ff5840,ma_choice_v4_pilot2,5f5797c54d47e72494ff5840,2,Closeness to public transportation,85,,,wad_att_rating,2383,,,,,2022-05-23 12:52:56,10604
5f5797c54d47e72494ff5840,ma_choice_v4_pilot2,5f5797c54d47e72494ff5840,9,Quality of heat/AC system,64,,,wad_att_rating,2405,,,,,2022-05-23 12:52:58,10605
5f5797c54d47e72494ff5840,ma_choice_v4_pilot2,5f5797c54d47e72494ff5840,0,Closeness to parks,57,,,wad_att_rating,2408,,,,,2022-05-23 12:53:01,10606
607ec28e6a0bde56a9d69ddc,ma_choice_v4_pilot2,607ec28e6a0bde56a9d69ddc,1,Closeness to cafes/restaurants,12,,,wad_att_rating,11253,,,,,2022-05-23 12:53:02,10607
5f5797c54d47e72494ff5840,ma_choice_v4_pilot2,5f5797c54d47e72494ff5840,11,Size of home,12,,,wad_att_rating,2084,,,,,2022-05-23 12:53:03,10608
5f5797c54d47e72494ff5840,ma_choice_v4_pilot2,5f5797c54d47e72494ff5840,10,Amount of traffic,38,,,wad_att_rating,2366,,,,,2022-05-23 12:53:05,10609
5f5797c54d47e72494ff5840,ma_choice_v4_pilot2,5f5797c54d47e72494ff5840,4,Reputation of closest school,32,,,wad_att_rating,2863,,,,,2022-05-23 12:53:08,10610
5f5797c54d47e72494ff5840,ma_choice_v4_pilot2,5f5797c54d47e72494ff5840,7,Size of yard,37,,,wad_att_rating,2308,,,,,2022-05-23 12:53:10,10611
607ec28e6a0bde56a9d69ddc,ma_choice_v4_pilot2,607ec28e6a0bde56a9d69ddc,7,Size of yard,93,,,wad_att_rating,11668,,,,,2022-05-23 12:53:13,10612
5f5797c54d47e72494ff5840,ma_choice_v4_pilot2,5f5797c54d47e72494ff5840,3,Noise pollution,28,,,wad_att_rating,4643,,,,,2022-05-23 12:53:15,10613
5f5797c54d47e72494ff5840,ma_choice_v4_pilot2,5f5797c54d47e72494ff5840,6,Year building was built,23,,,wad_att_rating,2552,,,,,2022-05-23 12:53:18,10614
5f5797c54d47e72494ff5840,ma_choice_v4_pilot2,5f5797c54d47e72494ff5840,8,Quality of kitchen,33,,,wad_att_rating,1767,,,,,2022-05-23 12:53:19,10615
607ec28e6a0bde56a9d69ddc,ma_choice_v4_pilot2,607ec28e6a0bde56a9d69ddc,3,Noise pollution,0,,,wad_att_rating,10547,,,,,2022-05-23 12:53:24,10616
5f5797c54d47e72494ff5840,ma_choice_v4_pilot2,5f5797c54d47e72494ff5840,0,Closeness to cafes/restaurants,1,,,lex_att_rating,3625,,,,,2022-05-23 12:53:26,10617
5f5797c54d47e72494ff5840,ma_choice_v4_pilot2,5f5797c54d47e72494ff5840,0,Closeness to cafes/restaurants,1,,,ew_att_rating,6087,,,,,2022-05-23 12:53:35,10618
5f5797c54d47e72494ff5840,ma_choice_v4_pilot2,5f5797c54d47e72494ff5840,0,Closeness to parks,1,,,ew_att_rating,6087,,,,,2022-05-23 12:53:35,10619
5f5797c54d47e72494ff5840,ma_choice_v4_pilot2,5f5797c54d47e72494ff5840,0,Closeness to public transportation,1,,,ew_att_rating,6087,,,,,2022-05-23 12:53:35,10620
607ec28e6a0bde56a9d69ddc,ma_choice_v4_pilot2,607ec28e6a0bde56a9d69ddc,5,Amount of natural light,51,,,wad_att_rating,12441,,,,,2022-05-23 12:53:36,10621
607ec28e6a0bde56a9d69ddc,ma_choice_v4_pilot2,607ec28e6a0bde56a9d69ddc,0,Closeness to parks,0,,,wad_att_rating,6910,,,,,2022-05-23 12:53:43,10622
607ec28e6a0bde56a9d69ddc,ma_choice_v4_pilot2,607ec28e6a0bde56a9d69ddc,9,Quality of heat/AC system,99,,,wad_att_rating,12479,,,,,2022-05-23 12:53:56,10623
607ec28e6a0bde56a9d69ddc,ma_choice_v4_pilot2,607ec28e6a0bde56a9d69ddc,8,Quality of kitchen,18,,,wad_att_rating,12037,,,,,2022-05-23 12:54:08,10624
607ec28e6a0bde56a9d69ddc,ma_choice_v4_pilot2,607ec28e6a0bde56a9d69ddc,10,Amount of traffic,0,,,wad_att_rating,5635,,,,,2022-05-23 12:54:13,10625
5f371531d5b7e818ee0cf328,ma_choice_v4_pilot2,5f371531d5b7e818ee0cf328,4,Reputation of closest school,23,,,wad_att_rating,59140,,,,,2022-05-23 12:54:16,10626
5f371531d5b7e818ee0cf328,ma_choice_v4_pilot2,5f371531d5b7e818ee0cf328,5,Amount of natural light,63,,,wad_att_rating,3880,,,,,2022-05-23 12:54:20,10627
607ec28e6a0bde56a9d69ddc,ma_choice_v4_pilot2,607ec28e6a0bde56a9d69ddc,6,Year building was built,0,,,wad_att_rating,7354,,,,,2022-05-23 12:54:21,10628
5f371531d5b7e818ee0cf328,ma_choice_v4_pilot2,5f371531d5b7e818ee0cf328,0,Closeness to parks,38,,,wad_att_rating,4536,,,,,2022-05-23 12:54:24,10629
5f371531d5b7e818ee0cf328,ma_choice_v4_pilot2,5f371531d5b7e818ee0cf328,9,Quality of heat/AC system,87,,,wad_att_rating,5985,,,,,2022-05-23 12:54:30,10630
607ec28e6a0bde56a9d69ddc,ma_choice_v4_pilot2,607ec28e6a0bde56a9d69ddc,4,Reputation of closest school,3,,,wad_att_rating,9879,,,,,2022-05-23 12:54:31,10631
5f371531d5b7e818ee0cf328,ma_choice_v4_pilot2,5f371531d5b7e818ee0cf328,7,Size of yard,37,,,wad_att_rating,3186,,,,,2022-05-23 12:54:34,10632
5f371531d5b7e818ee0cf328,ma_choice_v4_pilot2,5f371531d5b7e818ee0cf328,11,Size of home,37,,,wad_att_rating,3475,,,,,2022-05-23 12:54:37,10633
607ec28e6a0bde56a9d69ddc,ma_choice_v4_pilot2,607ec28e6a0bde56a9d69ddc,11,Size of home,18,,,wad_att_rating,9448,,,,,2022-05-23 12:54:40,10634
5f371531d5b7e818ee0cf328,ma_choice_v4_pilot2,5f371531d5b7e818ee0cf328,1,Closeness to cafes/restaurants,50,,,wad_att_rating,3505,,,,,2022-05-23 12:54:41,10635
5e6fd38fe95be7071b5196bf,ma_choice_v4_pilot2,5e6fd38fe95be7071b5196bf,5,Amount of natural light,-1,A Little,A Moderate Amount,direction,9229,,,,,2022-05-23 12:54:43,10636
5f371531d5b7e818ee0cf328,ma_choice_v4_pilot2,5f371531d5b7e818ee0cf328,10,Amount of traffic,61,,,wad_att_rating,3138,,,,,2022-05-23 12:54:44,10637
5f371531d5b7e818ee0cf328,ma_choice_v4_pilot2,5f371531d5b7e818ee0cf328,6,Year building was built,12,,,wad_att_rating,4054,,,,,2022-05-23 12:54:48,10638
5f371531d5b7e818ee0cf328,ma_choice_v4_pilot2,5f371531d5b7e818ee0cf328,8,Quality of kitchen,38,,,wad_att_rating,3402,,,,,2022-05-23 12:54:51,10639
5f371531d5b7e818ee0cf328,ma_choice_v4_pilot2,5f371531d5b7e818ee0cf328,3,Noise pollution,60,,,wad_att_rating,3185,,,,,2022-05-23 12:54:54,10640
5f371531d5b7e818ee0cf328,ma_choice_v4_pilot2,5f371531d5b7e818ee0cf328,2,Closeness to public transportation,0,,,wad_att_rating,5458,,,,,2022-05-23 12:55:00,10641
5e6fd38fe95be7071b5196bf,ma_choice_v4_pilot2,5e6fd38fe95be7071b5196bf,0,Closeness to parks,-1,15 min away,20 min away,direction,7934,,,,,2022-05-23 12:55:03,10642
5e6fd38fe95be7071b5196bf,ma_choice_v4_pilot2,5e6fd38fe95be7071b5196bf,9,Quality of heat/AC system,-1,Good,Moderate,direction,5582,,,,,2022-05-23 12:55:13,10643
607ec28e6a0bde56a9d69ddc,ma_choice_v4_pilot2,607ec28e6a0bde56a9d69ddc,0,Quality of heat/AC system,1,,,lex_att_rating,17185,,,,,2022-05-23 12:55:18,10644
5f371531d5b7e818ee0cf328,ma_choice_v4_pilot2,5f371531d5b7e818ee0cf328,0,Quality of heat/AC system,1,,,lex_att_rating,5578,,,,,2022-05-23 12:55:20,10645
5e6fd38fe95be7071b5196bf,ma_choice_v4_pilot2,5e6fd38fe95be7071b5196bf,11,Size of home,-1,1200 square feet,600 square feet,direction,3678,,,,,2022-05-23 12:55:21,10646
5e6fd38fe95be7071b5196bf,ma_choice_v4_pilot2,5e6fd38fe95be7071b5196bf,4,Reputation of closest school,-1,Moderate,Very Bad,direction,2486,,,,,2022-05-23 12:55:31,10647
5e6fd38fe95be7071b5196bf,ma_choice_v4_pilot2,5e6fd38fe95be7071b5196bf,2,Closeness to public transportation,-1,20 min away,10 min away,direction,4310,,,,,2022-05-23 12:55:42,10648
5f371531d5b7e818ee0cf328,ma_choice_v4_pilot2,5f371531d5b7e818ee0cf328,0,Amount of natural light,1,,,ew_att_rating,13158,,,,,2022-05-23 12:55:48,10649
5f371531d5b7e818ee0cf328,ma_choice_v4_pilot2,5f371531d5b7e818ee0cf328,0,Quality of heat/AC system,1,,,ew_att_rating,13158,,,,,2022-05-23 12:55:48,10650
5e6fd38fe95be7071b5196bf,ma_choice_v4_pilot2,5e6fd38fe95be7071b5196bf,7,Size of yard,-1,300 square feet,0 square feet,direction,1831,,,,,2022-05-23 12:55:52,10651
5e6fd38fe95be7071b5196bf,ma_choice_v4_pilot2,5e6fd38fe95be7071b5196bf,10,Amount of traffic,-1,A Moderate Amount,A Lot,direction,7422,,,,,2022-05-23 12:56:03,10652
607ec28e6a0bde56a9d69ddc,ma_choice_v4_pilot2,607ec28e6a0bde56a9d69ddc,0,Size of yard,1,,,ew_att_rating,23076,,,,,2022-05-23 12:56:09,10653
607ec28e6a0bde56a9d69ddc,ma_choice_v4_pilot2,607ec28e6a0bde56a9d69ddc,0,Quality of heat/AC system,1,,,ew_att_rating,23076,,,,,2022-05-23 12:56:09,10654
607ec28e6a0bde56a9d69ddc,ma_choice_v4_pilot2,607ec28e6a0bde56a9d69ddc,0,Amount of natural light,1,,,ew_att_rating,23076,,,,,2022-05-23 12:56:09,10655
5e6fd38fe95be7071b5196bf,ma_choice_v4_pilot2,5e6fd38fe95be7071b5196bf,3,Noise pollution,-1,Very Low,Moderate,direction,5103,,,,,2022-05-23 12:56:18,10656
5e6fd38fe95be7071b5196bf,ma_choice_v4_pilot2,5e6fd38fe95be7071b5196bf,6,Year building was built,-1,1985,2020,direction,3646,,,,,2022-05-23 12:56:28,10657
5e6fd38fe95be7071b5196bf,ma_choice_v4_pilot2,5e6fd38fe95be7071b5196bf,8,Quality of kitchen,-1,Good,Moderate,direction,1454,,,,,2022-05-23 12:56:35,10658
5e6fd38fe95be7071b5196bf,ma_choice_v4_pilot2,5e6fd38fe95be7071b5196bf,1,Closeness to cafes/restaurants,-1,20 min away,25 min away,direction,2166,,,,,2022-05-23 12:56:43,10659
5e68defb230fc417cd72d6e6,ma_choice_v4_pilot2,5e68defb230fc417cd72d6e6,2,Closeness to public transportation,0,,,wad_att_rating,3655,,,,,2022-05-23 12:57:13,10660
5e68defb230fc417cd72d6e6,ma_choice_v4_pilot2,5e68defb230fc417cd72d6e6,8,Quality of kitchen,0,,,wad_att_rating,3522,,,,,2022-05-23 12:57:16,10661
5e68defb230fc417cd72d6e6,ma_choice_v4_pilot2,5e68defb230fc417cd72d6e6,3,Noise pollution,100,,,wad_att_rating,4185,,,,,2022-05-23 12:57:20,10662
5e68defb230fc417cd72d6e6,ma_choice_v4_pilot2,5e68defb230fc417cd72d6e6,9,Quality of heat/AC system,0,,,wad_att_rating,2305,,,,,2022-05-23 12:57:23,10663
5e68defb230fc417cd72d6e6,ma_choice_v4_pilot2,5e68defb230fc417cd72d6e6,7,Size of yard,0,,,wad_att_rating,2456,,,,,2022-05-23 12:57:25,10664
5e68defb230fc417cd72d6e6,ma_choice_v4_pilot2,5e68defb230fc417cd72d6e6,5,Amount of natural light,0,,,wad_att_rating,2641,,,,,2022-05-23 12:57:28,10665
5e68defb230fc417cd72d6e6,ma_choice_v4_pilot2,5e68defb230fc417cd72d6e6,4,Reputation of closest school,0,,,wad_att_rating,2424,,,,,2022-05-23 12:57:30,10666
5e68defb230fc417cd72d6e6,ma_choice_v4_pilot2,5e68defb230fc417cd72d6e6,10,Amount of traffic,0,,,wad_att_rating,2176,,,,,2022-05-23 12:57:32,10667
5e68defb230fc417cd72d6e6,ma_choice_v4_pilot2,5e68defb230fc417cd72d6e6,11,Size of home,0,,,wad_att_rating,1716,,,,,2022-05-23 12:57:34,10668
5e68defb230fc417cd72d6e6,ma_choice_v4_pilot2,5e68defb230fc417cd72d6e6,0,Closeness to parks,0,,,wad_att_rating,2353,,,,,2022-05-23 12:57:36,10669
5e68defb230fc417cd72d6e6,ma_choice_v4_pilot2,5e68defb230fc417cd72d6e6,1,Closeness to cafes/restaurants,0,,,wad_att_rating,2288,,,,,2022-05-23 12:57:39,10670
5e68defb230fc417cd72d6e6,ma_choice_v4_pilot2,5e68defb230fc417cd72d6e6,6,Year building was built,0,,,wad_att_rating,2008,,,,,2022-05-23 12:57:41,10671
5e68defb230fc417cd72d6e6,ma_choice_v4_pilot2,5e68defb230fc417cd72d6e6,0,Noise pollution,1,,,lex_att_rating,4535,,,,,2022-05-23 12:57:49,10672
5e68defb230fc417cd72d6e6,ma_choice_v4_pilot2,5e68defb230fc417cd72d6e6,0,Noise pollution,1,,,ew_att_rating,4056,,,,,2022-05-23 12:57:56,10673
5e6784bc622ffe000c766b4b,ma_choice_v4_pilot2,5e6784bc622ffe000c766b4b,0,Reputation of closest school,1,,,ew_att_rating,37381,,,,,2022-05-23 12:58:20,10674
5e6784bc622ffe000c766b4b,ma_choice_v4_pilot2,5e6784bc622ffe000c766b4b,0,Amount of traffic,1,,,ew_att_rating,37381,,,,,2022-05-23 12:58:20,10675
5e6784bc622ffe000c766b4b,ma_choice_v4_pilot2,5e6784bc622ffe000c766b4b,0,Size of yard,1,,,ew_att_rating,37381,,,,,2022-05-23 12:58:20,10676
5e6784bc622ffe000c766b4b,ma_choice_v4_pilot2,5e6784bc622ffe000c766b4b,0,Noise pollution,1,,,ew_att_rating,37381,,,,,2022-05-23 12:58:20,10677
5e6784bc622ffe000c766b4b,ma_choice_v4_pilot2,5e6784bc622ffe000c766b4b,7,Size of yard,26,,,wad_att_rating,5392,,,,,2022-05-23 12:58:29,10678
5e6784bc622ffe000c766b4b,ma_choice_v4_pilot2,5e6784bc622ffe000c766b4b,4,Reputation of closest school,95,,,wad_att_rating,4172,,,,,2022-05-23 12:58:33,10679
5e6784bc622ffe000c766b4b,ma_choice_v4_pilot2,5e6784bc622ffe000c766b4b,2,Closeness to public transportation,0,,,wad_att_rating,7849,,,,,2022-05-23 12:58:41,10680
5e6784bc622ffe000c766b4b,ma_choice_v4_pilot2,5e6784bc622ffe000c766b4b,9,Quality of heat/AC system,26,,,wad_att_rating,2713,,,,,2022-05-23 12:58:43,10681
5e6784bc622ffe000c766b4b,ma_choice_v4_pilot2,5e6784bc622ffe000c766b4b,1,Closeness to cafes/restaurants,5,,,wad_att_rating,3467,,,,,2022-05-23 12:58:47,10682
5e6784bc622ffe000c766b4b,ma_choice_v4_pilot2,5e6784bc622ffe000c766b4b,5,Amount of natural light,26,,,wad_att_rating,2922,,,,,2022-05-23 12:58:50,10683
5e6784bc622ffe000c766b4b,ma_choice_v4_pilot2,5e6784bc622ffe000c766b4b,10,Amount of traffic,26,,,wad_att_rating,2868,,,,,2022-05-23 12:58:53,10684
5e6784bc622ffe000c766b4b,ma_choice_v4_pilot2,5e6784bc622ffe000c766b4b,8,Quality of kitchen,8,,,wad_att_rating,3161,,,,,2022-05-23 12:58:56,10685
5e6784bc622ffe000c766b4b,ma_choice_v4_pilot2,5e6784bc622ffe000c766b4b,3,Noise pollution,33,,,wad_att_rating,3144,,,,,2022-05-23 12:58:59,10686
5e6784bc622ffe000c766b4b,ma_choice_v4_pilot2,5e6784bc622ffe000c766b4b,11,Size of home,38,,,wad_att_rating,2899,,,,,2022-05-23 12:59:02,10687
5e6784bc622ffe000c766b4b,ma_choice_v4_pilot2,5e6784bc622ffe000c766b4b,6,Year building was built,0,,,wad_att_rating,2542,,,,,2022-05-23 12:59:04,10688
5e6784bc622ffe000c766b4b,ma_choice_v4_pilot2,5e6784bc622ffe000c766b4b,0,Closeness to parks,0,,,wad_att_rating,2243,,,,,2022-05-23 12:59:07,10689
5e6784bc622ffe000c766b4b,ma_choice_v4_pilot2,5e6784bc622ffe000c766b4b,0,Reputation of closest school,1,,,lex_att_rating,4785,,,,,2022-05-23 12:59:14,10690
57c725d89a5f4f0001f661bd,ma_choice_v4_pilot2,57c725d89a5f4f0001f661bd,2,Closeness to public transportation,0,,,wad_att_rating,6139,,,,,2022-05-23 13:00:37,10691
57c725d89a5f4f0001f661bd,ma_choice_v4_pilot2,57c725d89a5f4f0001f661bd,6,Year building was built,0,,,wad_att_rating,2832,,,,,2022-05-23 13:00:39,10692
57c725d89a5f4f0001f661bd,ma_choice_v4_pilot2,57c725d89a5f4f0001f661bd,4,Reputation of closest school,0,,,wad_att_rating,3217,,,,,2022-05-23 13:00:43,10693
57c725d89a5f4f0001f661bd,ma_choice_v4_pilot2,57c725d89a5f4f0001f661bd,10,Amount of traffic,0,,,wad_att_rating,2375,,,,,2022-05-23 13:00:45,10694
57c725d89a5f4f0001f661bd,ma_choice_v4_pilot2,57c725d89a5f4f0001f661bd,1,Closeness to cafes/restaurants,0,,,wad_att_rating,2493,,,,,2022-05-23 13:00:48,10695
607ec28e6a0bde56a9d69ddc,ma_choice_v4_pilot2,607ec28e6a0bde56a9d69ddc,8,Quality of kitchen,-1,Good,Very Bad,direction,16298,,,,,2022-05-23 13:00:50,10696
57c725d89a5f4f0001f661bd,ma_choice_v4_pilot2,57c725d89a5f4f0001f661bd,11,Size of home,0,,,wad_att_rating,2496,,,,,2022-05-23 13:00:50,10697
57c725d89a5f4f0001f661bd,ma_choice_v4_pilot2,57c725d89a5f4f0001f661bd,3,Noise pollution,100,,,wad_att_rating,4202,,,,,2022-05-23 13:00:54,10698
5f371531d5b7e818ee0cf328,ma_choice_v4_pilot2,5f371531d5b7e818ee0cf328,7,Size of yard,-1,300 square feet,0 square feet,direction,4018,,,,,2022-05-23 13:00:54,10699
5e6784bc622ffe000c766b4b,ma_choice_v4_pilot2,5e6784bc622ffe000c766b4b,4,Reputation of closest school,-1,Very Good,Very Bad,direction,4652,,,,,2022-05-23 13:00:57,10700
57c725d89a5f4f0001f661bd,ma_choice_v4_pilot2,57c725d89a5f4f0001f661bd,8,Quality of kitchen,0,,,wad_att_rating,3967,,,,,2022-05-23 13:00:58,10701
5f371531d5b7e818ee0cf328,ma_choice_v4_pilot2,5f371531d5b7e818ee0cf328,9,Quality of heat/AC system,-1,Very Good,Very Bad,direction,2468,,,,,2022-05-23 13:01:00,10702
57c725d89a5f4f0001f661bd,ma_choice_v4_pilot2,57c725d89a5f4f0001f661bd,7,Size of yard,0,,,wad_att_rating,2252,,,,,2022-05-23 13:01:00,10703
57c725d89a5f4f0001f661bd,ma_choice_v4_pilot2,57c725d89a5f4f0001f661bd,9,Quality of heat/AC system,0,,,wad_att_rating,2263,,,,,2022-05-23 13:01:03,10704
5e6784bc622ffe000c766b4b,ma_choice_v4_pilot2,5e6784bc622ffe000c766b4b,7,Size of yard,-1,600 square feet,0 square feet,direction,2089,,,,,2022-05-23 13:01:05,10705
57c725d89a5f4f0001f661bd,ma_choice_v4_pilot2,57c725d89a5f4f0001f661bd,0,Closeness to parks,0,,,wad_att_rating,2808,,,,,2022-05-23 13:01:05,10706
57c725d89a5f4f0001f661bd,ma_choice_v4_pilot2,57c725d89a5f4f0001f661bd,5,Amount of natural light,0,,,wad_att_rating,2598,,,,,2022-05-23 13:01:08,10707
5f371531d5b7e818ee0cf328,ma_choice_v4_pilot2,5f371531d5b7e818ee0cf328,8,Quality of kitchen,-1,Very Good,Very Bad,direction,2420,,,,,2022-05-23 13:01:09,10708
5e6784bc622ffe000c766b4b,ma_choice_v4_pilot2,5e6784bc622ffe000c766b4b,8,Quality of kitchen,-1,Moderate,Very Bad,direction,1829,,,,,2022-05-23 13:01:12,10709
5f371531d5b7e818ee0cf328,ma_choice_v4_pilot2,5f371531d5b7e818ee0cf328,0,Closeness to parks,-1,10 min away,30 min away,direction,2924,,,,,2022-05-23 13:01:16,10710
5e6784bc622ffe000c766b4b,ma_choice_v4_pilot2,5e6784bc622ffe000c766b4b,3,Noise pollution,-1,Moderate,Very High,direction,2315,,,,,2022-05-23 13:01:17,10711
57c725d89a5f4f0001f661bd,ma_choice_v4_pilot2,57c725d89a5f4f0001f661bd,0,Noise pollution,1,,,ew_att_rating,7500,,,,,2022-05-23 13:01:20,10712
607ec28e6a0bde56a9d69ddc,ma_choice_v4_pilot2,607ec28e6a0bde56a9d69ddc,7,Size of yard,-1,300 square feet,0 square feet,direction,8994,,,,,2022-05-23 13:01:22,10713
5e6784bc622ffe000c766b4b,ma_choice_v4_pilot2,5e6784bc622ffe000c766b4b,2,Closeness to public transportation,-1,20 min away,10 min away,direction,3436,,,,,2022-05-23 13:01:23,10714
5f371531d5b7e818ee0cf328,ma_choice_v4_pilot2,5f371531d5b7e818ee0cf328,2,Closeness to public transportation,-1,10 min away,30 min away,direction,2058,,,,,2022-05-23 13:01:24,10715
5f371531d5b7e818ee0cf328,ma_choice_v4_pilot2,5f371531d5b7e818ee0cf328,6,Year building was built,-1,2020,1950,direction,2260,,,,,2022-05-23 13:01:31,10716
5e6784bc622ffe000c766b4b,ma_choice_v4_pilot2,5e6784bc622ffe000c766b4b,6,Year building was built,-1,2020,1950,direction,2343,,,,,2022-05-23 13:01:33,10717
57c725d89a5f4f0001f661bd,ma_choice_v4_pilot2,57c725d89a5f4f0001f661bd,0,Noise pollution,1,,,lex_att_rating,4234,,,,,2022-05-23 13:01:34,10718
5f371531d5b7e818ee0cf328,ma_choice_v4_pilot2,5f371531d5b7e818ee0cf328,10,Amount of traffic,-1,Very Little,A Lot,direction,2155,,,,,2022-05-23 13:01:37,10719
5e6784bc622ffe000c766b4b,ma_choice_v4_pilot2,5e6784bc622ffe000c766b4b,5,Amount of natural light,-1,A Lot,Very Little,direction,1560,,,,,2022-05-23 13:01:40,10720
5f371531d5b7e818ee0cf328,ma_choice_v4_pilot2,5f371531d5b7e818ee0cf328,4,Reputation of closest school,-1,Very Good,Very Bad,direction,1756,,,,,2022-05-23 13:01:42,10721
5e6784bc622ffe000c766b4b,ma_choice_v4_pilot2,5e6784bc622ffe000c766b4b,10,Amount of traffic,-1,A Lot,Very Little,direction,2070,,,,,2022-05-23 13:01:45,10722
5f371531d5b7e818ee0cf328,ma_choice_v4_pilot2,5f371531d5b7e818ee0cf328,5,Amount of natural light,-1,A Lot,Very Little,direction,1916,,,,,2022-05-23 13:01:48,10723
5e6784bc622ffe000c766b4b,ma_choice_v4_pilot2,5e6784bc622ffe000c766b4b,1,Closeness to cafes/restaurants,-1,15 min away,30 min away,direction,2135,,,,,2022-05-23 13:01:53,10724
5f371531d5b7e818ee0cf328,ma_choice_v4_pilot2,5f371531d5b7e818ee0cf328,11,Size of home,-1,1200 square feet,600 square feet,direction,1700,,,,,2022-05-23 13:01:53,10725
5e6784bc622ffe000c766b4b,ma_choice_v4_pilot2,5e6784bc622ffe000c766b4b,11,Size of home,-1,1800 square feet,600 square feet,direction,1357,,,,,2022-05-23 13:01:57,10726
5f371531d5b7e818ee0cf328,ma_choice_v4_pilot2,5f371531d5b7e818ee0cf328,1,Closeness to cafes/restaurants,-1,10 min away,30 min away,direction,2354,,,,,2022-05-23 13:01:59,10727
5e6784bc622ffe000c766b4b,ma_choice_v4_pilot2,5e6784bc622ffe000c766b4b,9,Quality of heat/AC system,-1,Very Good,Very Bad,direction,2342,,,,,2022-05-23 13:02:01,10728
5f371531d5b7e818ee0cf328,ma_choice_v4_pilot2,5f371531d5b7e818ee0cf328,3,Noise pollution,-1,Very Low,Very High,direction,2123,,,,,2022-05-23 13:02:05,10729
607ec28e6a0bde56a9d69ddc,ma_choice_v4_pilot2,607ec28e6a0bde56a9d69ddc,11,Size of home,-1,1200 square feet,600 square feet,direction,25000,,,,,2022-05-23 13:02:07,10730
5e6784bc622ffe000c766b4b,ma_choice_v4_pilot2,5e6784bc622ffe000c766b4b,0,Closeness to parks,-1,10 min away,30 min away,direction,1608,,,,,2022-05-23 13:02:09,10731
607ec28e6a0bde56a9d69ddc,ma_choice_v4_pilot2,607ec28e6a0bde56a9d69ddc,5,Amount of natural light,-1,A Moderate Amount,Very Little,direction,4874,,,,,2022-05-23 13:02:26,10732
5f5797c54d47e72494ff5840,ma_choice_v4_pilot2,5f5797c54d47e72494ff5840,6,Year building was built,-1,2020,1950,direction,2681,,,,,2022-05-23 13:02:44,10733
5f5797c54d47e72494ff5840,ma_choice_v4_pilot2,5f5797c54d47e72494ff5840,9,Quality of heat/AC system,-1,Good,Bad,direction,1553,,,,,2022-05-23 13:02:48,10734
5f5797c54d47e72494ff5840,ma_choice_v4_pilot2,5f5797c54d47e72494ff5840,1,Closeness to cafes/restaurants,-1,10 min away,30 min away,direction,1310,,,,,2022-05-23 13:02:54,10735
607ec28e6a0bde56a9d69ddc,ma_choice_v4_pilot2,607ec28e6a0bde56a9d69ddc,10,Amount of traffic,-1,A Moderate Amount,A Lot,direction,19215,,,,,2022-05-23 13:02:58,10736
5f5797c54d47e72494ff5840,ma_choice_v4_pilot2,5f5797c54d47e72494ff5840,4,Reputation of closest school,-1,Very Good,Very Bad,direction,1900,,,,,2022-05-23 13:02:59,10737
5e68defb230fc417cd72d6e6,ma_choice_v4_pilot2,5e68defb230fc417cd72d6e6,11,Size of home,-1,1200 square feet,1800 square feet,direction,3999,,,,,2022-05-23 13:03:01,10738
5f5797c54d47e72494ff5840,ma_choice_v4_pilot2,5f5797c54d47e72494ff5840,3,Noise pollution,-1,Very High,Very Low,direction,984,,,,,2022-05-23 13:03:02,10739
5e68defb230fc417cd72d6e6,ma_choice_v4_pilot2,5e68defb230fc417cd72d6e6,3,Noise pollution,-1,Very Low,Very High,direction,1860,,,,,2022-05-23 13:03:06,10740
5f5797c54d47e72494ff5840,ma_choice_v4_pilot2,5f5797c54d47e72494ff5840,5,Amount of natural light,-1,A Moderate Amount,Very Little,direction,1630,,,,,2022-05-23 13:03:08,10741
5e68defb230fc417cd72d6e6,ma_choice_v4_pilot2,5e68defb230fc417cd72d6e6,10,Amount of traffic,-1,Very Little,A Lot,direction,1956,,,,,2022-05-23 13:03:11,10742
5f5797c54d47e72494ff5840,ma_choice_v4_pilot2,5f5797c54d47e72494ff5840,0,Closeness to parks,-1,10 min away,30 min away,direction,2120,,,,,2022-05-23 13:03:13,10743
5e68defb230fc417cd72d6e6,ma_choice_v4_pilot2,5e68defb230fc417cd72d6e6,4,Reputation of closest school,-1,Moderate,Very Bad,direction,2156,,,,,2022-05-23 13:03:17,10744
5f5797c54d47e72494ff5840,ma_choice_v4_pilot2,5f5797c54d47e72494ff5840,7,Size of yard,-1,600 square feet,0 square feet,direction,1799,,,,,2022-05-23 13:03:18,10745
5f5797c54d47e72494ff5840,ma_choice_v4_pilot2,5f5797c54d47e72494ff5840,11,Size of home,-1,1800 square feet,600 square feet,direction,1269,,,,,2022-05-23 13:03:22,10746
607ec28e6a0bde56a9d69ddc,ma_choice_v4_pilot2,607ec28e6a0bde56a9d69ddc,0,Closeness to parks,-1,20 min away,30 min away,direction,6872,,,,,2022-05-23 13:03:25,10747
5e68defb230fc417cd72d6e6,ma_choice_v4_pilot2,5e68defb230fc417cd72d6e6,9,Quality of heat/AC system,-1,Very Bad,Very Bad,direction,2234,,,,,2022-05-23 13:03:25,10748
5f5797c54d47e72494ff5840,ma_choice_v4_pilot2,5f5797c54d47e72494ff5840,2,Closeness to public transportation,-1,10 min away,30 min away,direction,1530,,,,,2022-05-23 13:03:26,10749
5e68defb230fc417cd72d6e6,ma_choice_v4_pilot2,5e68defb230fc417cd72d6e6,0,Closeness to parks,-1,10 min away,30 min away,direction,3556,,,,,2022-05-23 13:03:33,10750
5e68defb230fc417cd72d6e6,ma_choice_v4_pilot2,5e68defb230fc417cd72d6e6,2,Closeness to public transportation,-1,30 min away,10 min away,direction,2143,,,,,2022-05-23 13:03:41,10751
5f5797c54d47e72494ff5840,ma_choice_v4_pilot2,5f5797c54d47e72494ff5840,10,Amount of traffic,-1,Very Little,A Lot,direction,1693,,,,,2022-05-23 13:03:42,10752
5f5797c54d47e72494ff5840,ma_choice_v4_pilot2,5f5797c54d47e72494ff5840,8,Quality of kitchen,-1,Very Good,Very Bad,direction,1373,,,,,2022-05-23 13:03:46,10753
5e68defb230fc417cd72d6e6,ma_choice_v4_pilot2,5e68defb230fc417cd72d6e6,5,Amount of natural light,-1,A Lot,Very Little,direction,1700,,,,,2022-05-23 13:03:46,10754
5e68defb230fc417cd72d6e6,ma_choice_v4_pilot2,5e68defb230fc417cd72d6e6,8,Quality of kitchen,-1,Very Good,Very Bad,direction,1173,,,,,2022-05-23 13:03:50,10755
5e68defb230fc417cd72d6e6,ma_choice_v4_pilot2,5e68defb230fc417cd72d6e6,6,Year building was built,-1,2020,1950,direction,1341,,,,,2022-05-23 13:03:55,10756
5e68defb230fc417cd72d6e6,ma_choice_v4_pilot2,5e68defb230fc417cd72d6e6,1,Closeness to cafes/restaurants,-1,10 min away,30 min away,direction,1347,,,,,2022-05-23 13:04:03,10757
607ec28e6a0bde56a9d69ddc,ma_choice_v4_pilot2,607ec28e6a0bde56a9d69ddc,6,Year building was built,-1,1985,1950,direction,13556,,,,,2022-05-23 13:04:06,10758
5e68defb230fc417cd72d6e6,ma_choice_v4_pilot2,5e68defb230fc417cd72d6e6,7,Size of yard,-1,600 square feet,0 square feet,direction,1520,,,,,2022-05-23 13:04:07,10759
607ec28e6a0bde56a9d69ddc,ma_choice_v4_pilot2,607ec28e6a0bde56a9d69ddc,9,Quality of heat/AC system,-1,Very Good,Very Bad,direction,4390,,,,,2022-05-23 13:04:24,10760
60fba8244cc4f1057c521bf0,ma_choice_v4_pilot2,60fba8244cc4f1057c521bf0,0,Year building was built,1,,,ew_att_rating,18007,,,,,2022-05-23 13:04:27,10761
60fba8244cc4f1057c521bf0,ma_choice_v4_pilot2,60fba8244cc4f1057c521bf0,0,Size of home,1,,,ew_att_rating,18007,,,,,2022-05-23 13:04:27,10762
607ec28e6a0bde56a9d69ddc,ma_choice_v4_pilot2,607ec28e6a0bde56a9d69ddc,1,Closeness to cafes/restaurants,-1,15 min away,30 min away,direction,5411,,,,,2022-05-23 13:04:46,10763
60fba8244cc4f1057c521bf0,ma_choice_v4_pilot2,60fba8244cc4f1057c521bf0,0,Year building was built,1,,,lex_att_rating,3341,,,,,2022-05-23 13:05:02,10764
607ec28e6a0bde56a9d69ddc,ma_choice_v4_pilot2,607ec28e6a0bde56a9d69ddc,4,Reputation of closest school,-1,Good,Very Bad,direction,4936,,,,,2022-05-23 13:05:06,10765
60fba8244cc4f1057c521bf0,ma_choice_v4_pilot2,60fba8244cc4f1057c521bf0,1,Closeness to cafes/restaurants,54,,,wad_att_rating,4963,,,,,2022-05-23 13:05:10,10766
60fba8244cc4f1057c521bf0,ma_choice_v4_pilot2,60fba8244cc4f1057c521bf0,5,Amount of natural light,51,,,wad_att_rating,2618,,,,,2022-05-23 13:05:13,10767
60fba8244cc4f1057c521bf0,ma_choice_v4_pilot2,60fba8244cc4f1057c521bf0,2,Closeness to public transportation,48,,,wad_att_rating,1787,,,,,2022-05-23 13:05:15,10768
60fba8244cc4f1057c521bf0,ma_choice_v4_pilot2,60fba8244cc4f1057c521bf0,10,Amount of traffic,51,,,wad_att_rating,2379,,,,,2022-05-23 13:05:17,10769
60fba8244cc4f1057c521bf0,ma_choice_v4_pilot2,60fba8244cc4f1057c521bf0,9,Quality of heat/AC system,62,,,wad_att_rating,3100,,,,,2022-05-23 13:05:20,10770
60fba8244cc4f1057c521bf0,ma_choice_v4_pilot2,60fba8244cc4f1057c521bf0,3,Noise pollution,53,,,wad_att_rating,3019,,,,,2022-05-23 13:05:23,10771
607ec28e6a0bde56a9d69ddc,ma_choice_v4_pilot2,607ec28e6a0bde56a9d69ddc,2,Closeness to public transportation,-1,15 min away,30 min away,direction,5174,,,,,2022-05-23 13:05:23,10772
60fba8244cc4f1057c521bf0,ma_choice_v4_pilot2,60fba8244cc4f1057c521bf0,0,Closeness to parks,48,,,wad_att_rating,2682,,,,,2022-05-23 13:05:26,10773
60fba8244cc4f1057c521bf0,ma_choice_v4_pilot2,60fba8244cc4f1057c521bf0,7,Size of yard,35,,,wad_att_rating,3652,,,,,2022-05-23 13:05:29,10774
60fba8244cc4f1057c521bf0,ma_choice_v4_pilot2,60fba8244cc4f1057c521bf0,11,Size of home,90,,,wad_att_rating,2130,,,,,2022-05-23 13:05:31,10775
60fba8244cc4f1057c521bf0,ma_choice_v4_pilot2,60fba8244cc4f1057c521bf0,8,Quality of kitchen,61,,,wad_att_rating,2395,,,,,2022-05-23 13:05:34,10776
60fba8244cc4f1057c521bf0,ma_choice_v4_pilot2,60fba8244cc4f1057c521bf0,4,Reputation of closest school,50,,,wad_att_rating,2388,,,,,2022-05-23 13:05:36,10777
60fba8244cc4f1057c521bf0,ma_choice_v4_pilot2,60fba8244cc4f1057c521bf0,6,Year building was built,93,,,wad_att_rating,2204,,,,,2022-05-23 13:05:38,10778
607ec28e6a0bde56a9d69ddc,ma_choice_v4_pilot2,607ec28e6a0bde56a9d69ddc,3,Noise pollution,-1,Low,Very High,direction,4827,,,,,2022-05-23 13:05:44,10779
57c725d89a5f4f0001f661bd,ma_choice_v4_pilot2,57c725d89a5f4f0001f661bd,3,Noise pollution,-1,Very Low,Very High,direction,2942,,,,,2022-05-23 13:08:16,10780
57c725d89a5f4f0001f661bd,ma_choice_v4_pilot2,57c725d89a5f4f0001f661bd,6,Year building was built,-1,2020,1950,direction,2559,,,,,2022-05-23 13:08:24,10781
57c725d89a5f4f0001f661bd,ma_choice_v4_pilot2,57c725d89a5f4f0001f661bd,7,Size of yard,-1,600 square feet,0 square feet,direction,2861,,,,,2022-05-23 13:08:31,10782
57c725d89a5f4f0001f661bd,ma_choice_v4_pilot2,57c725d89a5f4f0001f661bd,9,Quality of heat/AC system,-1,Very Good,Very Bad,direction,2487,,,,,2022-05-23 13:08:37,10783
57c725d89a5f4f0001f661bd,ma_choice_v4_pilot2,57c725d89a5f4f0001f661bd,4,Reputation of closest school,-1,Very Good,Very Bad,direction,2344,,,,,2022-05-23 13:08:43,10784
57c725d89a5f4f0001f661bd,ma_choice_v4_pilot2,57c725d89a5f4f0001f661bd,5,Amount of natural light,-1,A Moderate Amount,A Lot,direction,6213,,,,,2022-05-23 13:08:59,10785
57c725d89a5f4f0001f661bd,ma_choice_v4_pilot2,57c725d89a5f4f0001f661bd,1,Closeness to cafes/restaurants,-1,10 min away,30 min away,direction,2487,,,,,2022-05-23 13:09:08,10786
57c725d89a5f4f0001f661bd,ma_choice_v4_pilot2,57c725d89a5f4f0001f661bd,11,Size of home,-1,1800 square feet,600 square feet,direction,2477,,,,,2022-05-23 13:09:14,10787
57c725d89a5f4f0001f661bd,ma_choice_v4_pilot2,57c725d89a5f4f0001f661bd,0,Closeness to parks,-1,10 min away,30 min away,direction,2445,,,,,2022-05-23 13:09:21,10788
57c725d89a5f4f0001f661bd,ma_choice_v4_pilot2,57c725d89a5f4f0001f661bd,8,Quality of kitchen,-1,Very Good,Very Bad,direction,2323,,,,,2022-05-23 13:09:27,10789
57c725d89a5f4f0001f661bd,ma_choice_v4_pilot2,57c725d89a5f4f0001f661bd,2,Closeness to public transportation,-1,10 min away,30 min away,direction,2862,,,,,2022-05-23 13:09:35,10790
57c725d89a5f4f0001f661bd,ma_choice_v4_pilot2,57c725d89a5f4f0001f661bd,10,Amount of traffic,-1,Very Little,A Lot,direction,2355,,,,,2022-05-23 13:09:43,10791
60fba8244cc4f1057c521bf0,ma_choice_v4_pilot2,60fba8244cc4f1057c521bf0,8,Quality of kitchen,-1,Moderate,Good,direction,4107,,,,,2022-05-23 13:10:47,10792
60fba8244cc4f1057c521bf0,ma_choice_v4_pilot2,60fba8244cc4f1057c521bf0,11,Size of home,-1,1200 square feet,1800 square feet,direction,3996,,,,,2022-05-23 13:10:52,10793
60fba8244cc4f1057c521bf0,ma_choice_v4_pilot2,60fba8244cc4f1057c521bf0,0,Closeness to parks,-1,10 min away,20 min away,direction,6675,,,,,2022-05-23 13:11:06,10794
60fba8244cc4f1057c521bf0,ma_choice_v4_pilot2,60fba8244cc4f1057c521bf0,1,Closeness to cafes/restaurants,-1,15 min away,20 min away,direction,2251,,,,,2022-05-23 13:11:13,10795
60fba8244cc4f1057c521bf0,ma_choice_v4_pilot2,60fba8244cc4f1057c521bf0,6,Year building was built,-1,2020,1985,direction,4589,,,,,2022-05-23 13:11:22,10796
60fba8244cc4f1057c521bf0,ma_choice_v4_pilot2,60fba8244cc4f1057c521bf0,5,Amount of natural light,-1,A Lot,A Moderate Amount,direction,2364,,,,,2022-05-23 13:11:30,10797
60fba8244cc4f1057c521bf0,ma_choice_v4_pilot2,60fba8244cc4f1057c521bf0,3,Noise pollution,-1,Low,High,direction,2411,,,,,2022-05-23 13:11:39,10798
60fba8244cc4f1057c521bf0,ma_choice_v4_pilot2,60fba8244cc4f1057c521bf0,4,Reputation of closest school,-1,Good,Moderate,direction,1700,,,,,2022-05-23 13:11:51,10799
60fba8244cc4f1057c521bf0,ma_choice_v4_pilot2,60fba8244cc4f1057c521bf0,2,Closeness to public transportation,-1,15 min away,20 min away,direction,1043,,,,,2022-05-23 13:12:00,10800
60fba8244cc4f1057c521bf0,ma_choice_v4_pilot2,60fba8244cc4f1057c521bf0,9,Quality of heat/AC system,-1,Good,Bad,direction,2500,,,,,2022-05-23 13:12:07,10801
60fba8244cc4f1057c521bf0,ma_choice_v4_pilot2,60fba8244cc4f1057c521bf0,7,Size of yard,-1,600 square feet,300 square feet,direction,2483,,,,,2022-05-23 13:12:13,10802
60fba8244cc4f1057c521bf0,ma_choice_v4_pilot2,60fba8244cc4f1057c521bf0,10,Amount of traffic,-1,A Moderate Amount,A Moderate Amount,direction,1308,,,,,2022-05-23 13:12:18,10803
5d649652adc4e8001a2d258d,ma_choice_v4_pilot2,5d649652adc4e8001a2d258d,11,Size of home,49,,,wad_att_rating,6382,,,,,2022-05-23 13:17:19,10804
5d649652adc4e8001a2d258d,ma_choice_v4_pilot2,5d649652adc4e8001a2d258d,8,Quality of kitchen,80,,,wad_att_rating,7893,,,,,2022-05-23 13:17:26,10805
5d649652adc4e8001a2d258d,ma_choice_v4_pilot2,5d649652adc4e8001a2d258d,5,Amount of natural light,24,,,wad_att_rating,3668,,,,,2022-05-23 13:17:30,10806
5f2ddb10a2052d12773e49ec,ma_choice_v4_pilot2,5f2ddb10a2052d12773e49ec,1,Closeness to cafes/restaurants,19,,,wad_att_rating,5187,,,,,2022-05-23 13:17:33,10807
5f2ddb10a2052d12773e49ec,ma_choice_v4_pilot2,5f2ddb10a2052d12773e49ec,2,Closeness to public transportation,20,,,wad_att_rating,2465,,,,,2022-05-23 13:17:35,10808
5f2ddb10a2052d12773e49ec,ma_choice_v4_pilot2,5f2ddb10a2052d12773e49ec,7,Size of yard,13,,,wad_att_rating,2570,,,,,2022-05-23 13:17:38,10809
5d649652adc4e8001a2d258d,ma_choice_v4_pilot2,5d649652adc4e8001a2d258d,4,Reputation of closest school,62,,,wad_att_rating,7869,,,,,2022-05-23 13:17:38,10810
5f2ddb10a2052d12773e49ec,ma_choice_v4_pilot2,5f2ddb10a2052d12773e49ec,4,Reputation of closest school,0,,,wad_att_rating,3087,,,,,2022-05-23 13:17:41,10811
5f2ddb10a2052d12773e49ec,ma_choice_v4_pilot2,5f2ddb10a2052d12773e49ec,5,Amount of natural light,3,,,wad_att_rating,2495,,,,,2022-05-23 13:17:44,10812
5d649652adc4e8001a2d258d,ma_choice_v4_pilot2,5d649652adc4e8001a2d258d,7,Size of yard,75,,,wad_att_rating,6085,,,,,2022-05-23 13:17:44,10813
5f2ddb10a2052d12773e49ec,ma_choice_v4_pilot2,5f2ddb10a2052d12773e49ec,10,Amount of traffic,54,,,wad_att_rating,3064,,,,,2022-05-23 13:17:47,10814
5d649652adc4e8001a2d258d,ma_choice_v4_pilot2,5d649652adc4e8001a2d258d,6,Year building was built,24,,,wad_att_rating,3821,,,,,2022-05-23 13:17:48,10815
5f2ddb10a2052d12773e49ec,ma_choice_v4_pilot2,5f2ddb10a2052d12773e49ec,11,Size of home,30,,,wad_att_rating,4415,,,,,2022-05-23 13:17:51,10816
5d649652adc4e8001a2d258d,ma_choice_v4_pilot2,5d649652adc4e8001a2d258d,2,Closeness to public transportation,0,,,wad_att_rating,3654,,,,,2022-05-23 13:17:52,10817
5d649652adc4e8001a2d258d,ma_choice_v4_pilot2,5d649652adc4e8001a2d258d,9,Quality of heat/AC system,89,,,wad_att_rating,4333,,,,,2022-05-23 13:17:56,10818
5f2ddb10a2052d12773e49ec,ma_choice_v4_pilot2,5f2ddb10a2052d12773e49ec,3,Noise pollution,96,,,wad_att_rating,4932,,,,,2022-05-23 13:17:56,10819
5f2ddb10a2052d12773e49ec,ma_choice_v4_pilot2,5f2ddb10a2052d12773e49ec,6,Year building was built,10,,,wad_att_rating,3558,,,,,2022-05-23 13:18:00,10820
5d649652adc4e8001a2d258d,ma_choice_v4_pilot2,5d649652adc4e8001a2d258d,3,Noise pollution,38,,,wad_att_rating,5541,,,,,2022-05-23 13:18:01,10821
5f2ddb10a2052d12773e49ec,ma_choice_v4_pilot2,5f2ddb10a2052d12773e49ec,0,Closeness to parks,11,,,wad_att_rating,2674,,,,,2022-05-23 13:18:02,10822
5f2ddb10a2052d12773e49ec,ma_choice_v4_pilot2,5f2ddb10a2052d12773e49ec,8,Quality of kitchen,38,,,wad_att_rating,2938,,,,,2022-05-23 13:18:05,10823
5d649652adc4e8001a2d258d,ma_choice_v4_pilot2,5d649652adc4e8001a2d258d,1,Closeness to cafes/restaurants,13,,,wad_att_rating,3901,,,,,2022-05-23 13:18:05,10824
5f2ddb10a2052d12773e49ec,ma_choice_v4_pilot2,5f2ddb10a2052d12773e49ec,9,Quality of heat/AC system,28,,,wad_att_rating,2000,,,,,2022-05-23 13:18:07,10825
5d649652adc4e8001a2d258d,ma_choice_v4_pilot2,5d649652adc4e8001a2d258d,10,Amount of traffic,24,,,wad_att_rating,3573,,,,,2022-05-23 13:18:09,10826
5d649652adc4e8001a2d258d,ma_choice_v4_pilot2,5d649652adc4e8001a2d258d,0,Closeness to parks,10,,,wad_att_rating,3477,,,,,2022-05-23 13:18:12,10827
5f2ddb10a2052d12773e49ec,ma_choice_v4_pilot2,5f2ddb10a2052d12773e49ec,0,Noise pollution,1,,,lex_att_rating,3387,,,,,2022-05-23 13:18:14,10828
5f2ddb10a2052d12773e49ec,ma_choice_v4_pilot2,5f2ddb10a2052d12773e49ec,0,Quality of kitchen,1,,,ew_att_rating,16078,,,,,2022-05-23 13:18:33,10829
5f2ddb10a2052d12773e49ec,ma_choice_v4_pilot2,5f2ddb10a2052d12773e49ec,0,Noise pollution,1,,,ew_att_rating,16078,,,,,2022-05-23 13:18:33,10830
5f2ddb10a2052d12773e49ec,ma_choice_v4_pilot2,5f2ddb10a2052d12773e49ec,0,Amount of traffic,1,,,ew_att_rating,16078,,,,,2022-05-23 13:18:33,10831
5d649652adc4e8001a2d258d,ma_choice_v4_pilot2,5d649652adc4e8001a2d258d,0,Quality of heat/AC system,1,,,lex_att_rating,17029,,,,,2022-05-23 13:18:38,10832
5d649652adc4e8001a2d258d,ma_choice_v4_pilot2,5d649652adc4e8001a2d258d,0,Quality of kitchen,1,,,ew_att_rating,17168,,,,,2022-05-23 13:19:02,10833
5d649652adc4e8001a2d258d,ma_choice_v4_pilot2,5d649652adc4e8001a2d258d,0,Quality of heat/AC system,1,,,ew_att_rating,17168,,,,,2022-05-23 13:19:02,10834
5d649652adc4e8001a2d258d,ma_choice_v4_pilot2,5d649652adc4e8001a2d258d,0,Size of yard,1,,,ew_att_rating,17168,,,,,2022-05-23 13:19:02,10835
5f2ddb10a2052d12773e49ec,ma_choice_v4_pilot2,5f2ddb10a2052d12773e49ec,2,Closeness to public transportation,-1,10 min away,20 min away,direction,3175,,,,,2022-05-23 13:19:14,10836
5f2ddb10a2052d12773e49ec,ma_choice_v4_pilot2,5f2ddb10a2052d12773e49ec,9,Quality of heat/AC system,-1,Very Good,Very Bad,direction,2898,,,,,2022-05-23 13:19:22,10837
5b50881a59119400018abaf3,ma_choice_v4_pilot2,5b50881a59119400018abaf3,0,Closeness to parks,1,,,ew_att_rating,10301,,,,,2022-05-23 13:19:24,10838
5b50881a59119400018abaf3,ma_choice_v4_pilot2,5b50881a59119400018abaf3,0,Noise pollution,1,,,ew_att_rating,10301,,,,,2022-05-23 13:19:24,10839
5b50881a59119400018abaf3,ma_choice_v4_pilot2,5b50881a59119400018abaf3,0,Closeness to cafes/restaurants,1,,,ew_att_rating,10301,,,,,2022-05-23 13:19:24,10840
5b50881a59119400018abaf3,ma_choice_v4_pilot2,5b50881a59119400018abaf3,0,Reputation of closest school,1,,,ew_att_rating,10301,,,,,2022-05-23 13:19:24,10841
5b50881a59119400018abaf3,ma_choice_v4_pilot2,5b50881a59119400018abaf3,0,Amount of traffic,1,,,ew_att_rating,10301,,,,,2022-05-23 13:19:24,10842
5b50881a59119400018abaf3,ma_choice_v4_pilot2,5b50881a59119400018abaf3,1,Closeness to cafes/restaurants,26,,,wad_att_rating,4066,,,,,2022-05-23 13:19:30,10843
5f2ddb10a2052d12773e49ec,ma_choice_v4_pilot2,5f2ddb10a2052d12773e49ec,10,Amount of traffic,-1,A Little,A Lot,direction,2830,,,,,2022-05-23 13:19:33,10844
5b50881a59119400018abaf3,ma_choice_v4_pilot2,5b50881a59119400018abaf3,9,Quality of heat/AC system,7,,,wad_att_rating,2881,,,,,2022-05-23 13:19:33,10845
5b50881a59119400018abaf3,ma_choice_v4_pilot2,5b50881a59119400018abaf3,3,Noise pollution,90,,,wad_att_rating,2013,,,,,2022-05-23 13:19:35,10846
5b50881a59119400018abaf3,ma_choice_v4_pilot2,5b50881a59119400018abaf3,2,Closeness to public transportation,20,,,wad_att_rating,2338,,,,,2022-05-23 13:19:37,10847
5b50881a59119400018abaf3,ma_choice_v4_pilot2,5b50881a59119400018abaf3,7,Size of yard,48,,,wad_att_rating,1902,,,,,2022-05-23 13:19:39,10848
5b50881a59119400018abaf3,ma_choice_v4_pilot2,5b50881a59119400018abaf3,11,Size of home,45,,,wad_att_rating,1853,,,,,2022-05-23 13:19:41,10849
5b50881a59119400018abaf3,ma_choice_v4_pilot2,5b50881a59119400018abaf3,10,Amount of traffic,88,,,wad_att_rating,2747,,,,,2022-05-23 13:19:43,10850
5f2ddb10a2052d12773e49ec,ma_choice_v4_pilot2,5f2ddb10a2052d12773e49ec,6,Year building was built,-1,1950,2020,direction,6025,,,,,2022-05-23 13:19:44,10851
5b50881a59119400018abaf3,ma_choice_v4_pilot2,5b50881a59119400018abaf3,5,Amount of natural light,16,,,wad_att_rating,3191,,,,,2022-05-23 13:19:47,10852
5b50881a59119400018abaf3,ma_choice_v4_pilot2,5b50881a59119400018abaf3,6,Year building was built,8,,,wad_att_rating,1964,,,,,2022-05-23 13:19:49,10853
5b50881a59119400018abaf3,ma_choice_v4_pilot2,5b50881a59119400018abaf3,4,Reputation of closest school,97,,,wad_att_rating,2004,,,,,2022-05-23 13:19:51,10854
5b50881a59119400018abaf3,ma_choice_v4_pilot2,5b50881a59119400018abaf3,8,Quality of kitchen,37,,,wad_att_rating,2351,,,,,2022-05-23 13:19:53,10855
5f2ddb10a2052d12773e49ec,ma_choice_v4_pilot2,5f2ddb10a2052d12773e49ec,5,Amount of natural light,-1,A Lot,Very Little,direction,2732,,,,,2022-05-23 13:19:54,10856
5b50881a59119400018abaf3,ma_choice_v4_pilot2,5b50881a59119400018abaf3,0,Closeness to parks,54,,,wad_att_rating,1792,,,,,2022-05-23 13:19:55,10857
5f2ddb10a2052d12773e49ec,ma_choice_v4_pilot2,5f2ddb10a2052d12773e49ec,1,Closeness to cafes/restaurants,-1,10 min away,30 min away,direction,1916,,,,,2022-05-23 13:19:59,10858
5b50881a59119400018abaf3,ma_choice_v4_pilot2,5b50881a59119400018abaf3,0,Reputation of closest school,1,,,lex_att_rating,4066,,,,,2022-05-23 13:20:02,10859
5f2ddb10a2052d12773e49ec,ma_choice_v4_pilot2,5f2ddb10a2052d12773e49ec,8,Quality of kitchen,-1,Very Good,Very Bad,direction,1526,,,,,2022-05-23 13:20:04,10860
5f6b8930b9d9530b1b065360,ma_choice_v4_pilot2,5f6b8930b9d9530b1b065360,0,Size of home,1,,,ew_att_rating,16819,,,,,2022-05-23 13:20:09,10861
5f6b8930b9d9530b1b065360,ma_choice_v4_pilot2,5f6b8930b9d9530b1b065360,0,Size of yard,1,,,ew_att_rating,16819,,,,,2022-05-23 13:20:09,10862
5f6b8930b9d9530b1b065360,ma_choice_v4_pilot2,5f6b8930b9d9530b1b065360,0,Amount of traffic,1,,,ew_att_rating,16819,,,,,2022-05-23 13:20:09,10863
5f6b8930b9d9530b1b065360,ma_choice_v4_pilot2,5f6b8930b9d9530b1b065360,0,Noise pollution,1,,,ew_att_rating,16819,,,,,2022-05-23 13:20:09,10864
5f2ddb10a2052d12773e49ec,ma_choice_v4_pilot2,5f2ddb10a2052d12773e49ec,7,Size of yard,-1,300 square feet,600 square feet,direction,3603,,,,,2022-05-23 13:20:11,10865
58060d08b869700001d70b8c,ma_choice_v4_pilot2,58060d08b869700001d70b8c,3,Noise pollution,19,,,wad_att_rating,6996,,,,,2022-05-23 13:20:16,10866
5f2ddb10a2052d12773e49ec,ma_choice_v4_pilot2,5f2ddb10a2052d12773e49ec,4,Reputation of closest school,-1,Moderate,Moderate,direction,3383,,,,,2022-05-23 13:20:20,10867
58060d08b869700001d70b8c,ma_choice_v4_pilot2,58060d08b869700001d70b8c,1,Closeness to cafes/restaurants,59,,,wad_att_rating,4074,,,,,2022-05-23 13:20:20,10868
5f6b8930b9d9530b1b065360,ma_choice_v4_pilot2,5f6b8930b9d9530b1b065360,9,Quality of heat/AC system,0,,,wad_att_rating,7260,,,,,2022-05-23 13:20:22,10869
5f6b8930b9d9530b1b065360,ma_choice_v4_pilot2,5f6b8930b9d9530b1b065360,3,Noise pollution,76,,,wad_att_rating,3254,,,,,2022-05-23 13:20:25,10870
58060d08b869700001d70b8c,ma_choice_v4_pilot2,58060d08b869700001d70b8c,6,Year building was built,0,,,wad_att_rating,4482,,,,,2022-05-23 13:20:25,10871
5f6b8930b9d9530b1b065360,ma_choice_v4_pilot2,5f6b8930b9d9530b1b065360,6,Year building was built,0,,,wad_att_rating,2198,,,,,2022-05-23 13:20:27,10872
5f2ddb10a2052d12773e49ec,ma_choice_v4_pilot2,5f2ddb10a2052d12773e49ec,3,Noise pollution,-1,Very Low,Very High,direction,2081,,,,,2022-05-23 13:20:28,10873
58060d08b869700001d70b8c,ma_choice_v4_pilot2,58060d08b869700001d70b8c,10,Amount of traffic,20,,,wad_att_rating,3542,,,,,2022-05-23 13:20:28,10874
5f6b8930b9d9530b1b065360,ma_choice_v4_pilot2,5f6b8930b9d9530b1b065360,4,Reputation of closest school,0,,,wad_att_rating,2329,,,,,2022-05-23 13:20:29,10875
5f6b8930b9d9530b1b065360,ma_choice_v4_pilot2,5f6b8930b9d9530b1b065360,2,Closeness to public transportation,0,,,wad_att_rating,1897,,,,,2022-05-23 13:20:31,10876
58060d08b869700001d70b8c,ma_choice_v4_pilot2,58060d08b869700001d70b8c,2,Closeness to public transportation,94,,,wad_att_rating,3583,,,,,2022-05-23 13:20:32,10877
5f2ddb10a2052d12773e49ec,ma_choice_v4_pilot2,5f2ddb10a2052d12773e49ec,11,Size of home,-1,1200 square feet,600 square feet,direction,1751,,,,,2022-05-23 13:20:33,10878
5f6b8930b9d9530b1b065360,ma_choice_v4_pilot2,5f6b8930b9d9530b1b065360,5,Amount of natural light,7,,,wad_att_rating,2633,,,,,2022-05-23 13:20:34,10879
5b50881a59119400018abaf3,ma_choice_v4_pilot2,5b50881a59119400018abaf3,8,Quality of kitchen,-1,Very Good,Very Bad,direction,1473,,,,,2022-05-23 13:20:36,10880
5f6b8930b9d9530b1b065360,ma_choice_v4_pilot2,5f6b8930b9d9530b1b065360,11,Size of home,74,,,wad_att_rating,3402,,,,,2022-05-23 13:20:37,10881
5f2ddb10a2052d12773e49ec,ma_choice_v4_pilot2,5f2ddb10a2052d12773e49ec,0,Closeness to parks,-1,10 min away,30 min away,direction,1683,,,,,2022-05-23 13:20:37,10882
58060d08b869700001d70b8c,ma_choice_v4_pilot2,58060d08b869700001d70b8c,0,Closeness to parks,76,,,wad_att_rating,5965,,,,,2022-05-23 13:20:38,10883
5f6b8930b9d9530b1b065360,ma_choice_v4_pilot2,5f6b8930b9d9530b1b065360,7,Size of yard,73,,,wad_att_rating,3053,,,,,2022-05-23 13:20:40,10884
58060d08b869700001d70b8c,ma_choice_v4_pilot2,58060d08b869700001d70b8c,8,Quality of kitchen,30,,,wad_att_rating,3950,,,,,2022-05-23 13:20:42,10885
5f6b8930b9d9530b1b065360,ma_choice_v4_pilot2,5f6b8930b9d9530b1b065360,8,Quality of kitchen,0,,,wad_att_rating,2459,,,,,2022-05-23 13:20:43,10886
5b50881a59119400018abaf3,ma_choice_v4_pilot2,5b50881a59119400018abaf3,2,Closeness to public transportation,-1,15 min away,30 min away,direction,2067,,,,,2022-05-23 13:20:45,10887
5f6b8930b9d9530b1b065360,ma_choice_v4_pilot2,5f6b8930b9d9530b1b065360,1,Closeness to cafes/restaurants,0,,,wad_att_rating,2742,,,,,2022-05-23 13:20:45,10888
58060d08b869700001d70b8c,ma_choice_v4_pilot2,58060d08b869700001d70b8c,4,Reputation of closest school,48,,,wad_att_rating,4067,,,,,2022-05-23 13:20:46,10889
5b50881a59119400018abaf3,ma_choice_v4_pilot2,5b50881a59119400018abaf3,7,Size of yard,-1,600 square feet,0 square feet,direction,968,,,,,2022-05-23 13:20:47,10890
58060d08b869700001d70b8c,ma_choice_v4_pilot2,58060d08b869700001d70b8c,7,Size of yard,33,,,wad_att_rating,3365,,,,,2022-05-23 13:20:49,10891
5f6b8930b9d9530b1b065360,ma_choice_v4_pilot2,5f6b8930b9d9530b1b065360,10,Amount of traffic,77,,,wad_att_rating,3969,,,,,2022-05-23 13:20:49,10892
5b50881a59119400018abaf3,ma_choice_v4_pilot2,5b50881a59119400018abaf3,4,Reputation of closest school,-1,Very Good,Very Bad,direction,926,,,,,2022-05-23 13:20:50,10893
5f6b8930b9d9530b1b065360,ma_choice_v4_pilot2,5f6b8930b9d9530b1b065360,0,Closeness to parks,0,,,wad_att_rating,2619,,,,,2022-05-23 13:20:52,10894
58060d08b869700001d70b8c,ma_choice_v4_pilot2,58060d08b869700001d70b8c,11,Size of home,13,,,wad_att_rating,2947,,,,,2022-05-23 13:20:52,10895
5b50881a59119400018abaf3,ma_choice_v4_pilot2,5b50881a59119400018abaf3,3,Noise pollution,-1,Very Low,Very High,direction,1492,,,,,2022-05-23 13:20:54,10896
5df86782b1f2225fb67275df,ma_choice_v4_pilot2,5df86782b1f2225fb67275df,0,Reputation of closest school,1,,,ew_att_rating,45163,,,,,2022-05-23 13:20:55,10897
5df86782b1f2225fb67275df,ma_choice_v4_pilot2,5df86782b1f2225fb67275df,0,Size of yard,1,,,ew_att_rating,45163,,,,,2022-05-23 13:20:55,10898
5df86782b1f2225fb67275df,ma_choice_v4_pilot2,5df86782b1f2225fb67275df,0,Closeness to parks,1,,,ew_att_rating,45163,,,,,2022-05-23 13:20:55,10899
58060d08b869700001d70b8c,ma_choice_v4_pilot2,58060d08b869700001d70b8c,5,Amount of natural light,23,,,wad_att_rating,3925,,,,,2022-05-23 13:20:56,10900
5b50881a59119400018abaf3,ma_choice_v4_pilot2,5b50881a59119400018abaf3,6,Year building was built,-1,2020,1950,direction,1623,,,,,2022-05-23 13:20:57,10901
58060d08b869700001d70b8c,ma_choice_v4_pilot2,58060d08b869700001d70b8c,9,Quality of heat/AC system,18,,,wad_att_rating,3462,,,,,2022-05-23 13:21:00,10902
5b50881a59119400018abaf3,ma_choice_v4_pilot2,5b50881a59119400018abaf3,10,Amount of traffic,-1,Very Little,A Lot,direction,1159,,,,,2022-05-23 13:21:00,10903
5b50881a59119400018abaf3,ma_choice_v4_pilot2,5b50881a59119400018abaf3,11,Size of home,-1,1800 square feet,600 square feet,direction,1250,,,,,2022-05-23 13:21:05,10904
5f6b8930b9d9530b1b065360,ma_choice_v4_pilot2,5f6b8930b9d9530b1b065360,0,Amount of traffic,1,,,lex_att_rating,9385,,,,,2022-05-23 13:21:05,10905
5b50881a59119400018abaf3,ma_choice_v4_pilot2,5b50881a59119400018abaf3,1,Closeness to cafes/restaurants,-1,10 min away,30 min away,direction,1361,,,,,2022-05-23 13:21:09,10906
5df86782b1f2225fb67275df,ma_choice_v4_pilot2,5df86782b1f2225fb67275df,0,Reputation of closest school,1,,,lex_att_rating,6113,,,,,2022-05-23 13:21:10,10907
5b50881a59119400018abaf3,ma_choice_v4_pilot2,5b50881a59119400018abaf3,9,Quality of heat/AC system,-1,Very Good,Very Bad,direction,1292,,,,,2022-05-23 13:21:12,10908
5b50881a59119400018abaf3,ma_choice_v4_pilot2,5b50881a59119400018abaf3,0,Closeness to parks,-1,10 min away,30 min away,direction,1905,,,,,2022-05-23 13:21:17,10909
5b50881a59119400018abaf3,ma_choice_v4_pilot2,5b50881a59119400018abaf3,5,Amount of natural light,-1,A Lot,Very Little,direction,1558,,,,,2022-05-23 13:21:21,10910
5df86782b1f2225fb67275df,ma_choice_v4_pilot2,5df86782b1f2225fb67275df,9,Quality of heat/AC system,0,,,wad_att_rating,9225,,,,,2022-05-23 13:21:29,10911
58060d08b869700001d70b8c,ma_choice_v4_pilot2,58060d08b869700001d70b8c,0,Closeness to parks,1,,,ew_att_rating,26575,,,,,2022-05-23 13:21:38,10912
58060d08b869700001d70b8c,ma_choice_v4_pilot2,58060d08b869700001d70b8c,0,Size of yard,1,,,ew_att_rating,26575,,,,,2022-05-23 13:21:38,10913
58060d08b869700001d70b8c,ma_choice_v4_pilot2,58060d08b869700001d70b8c,0,Closeness to cafes/restaurants,1,,,ew_att_rating,26575,,,,,2022-05-23 13:21:38,10914
58060d08b869700001d70b8c,ma_choice_v4_pilot2,58060d08b869700001d70b8c,0,Closeness to public transportation,1,,,ew_att_rating,26575,,,,,2022-05-23 13:21:38,10915
5df86782b1f2225fb67275df,ma_choice_v4_pilot2,5df86782b1f2225fb67275df,2,Closeness to public transportation,0,,,wad_att_rating,12998,,,,,2022-05-23 13:21:42,10916
58060d08b869700001d70b8c,ma_choice_v4_pilot2,58060d08b869700001d70b8c,0,Closeness to public transportation,1,,,lex_att_rating,2854,,,,,2022-05-23 13:21:46,10917
5df86782b1f2225fb67275df,ma_choice_v4_pilot2,5df86782b1f2225fb67275df,0,Closeness to parks,49,,,wad_att_rating,6293,,,,,2022-05-23 13:21:48,10918
5f6b8930b9d9530b1b065360,ma_choice_v4_pilot2,5f6b8930b9d9530b1b065360,3,Noise pollution,-1,Very Low,Very High,direction,1787,,,,,2022-05-23 13:21:48,10919
5df86782b1f2225fb67275df,ma_choice_v4_pilot2,5df86782b1f2225fb67275df,8,Quality of kitchen,0,,,wad_att_rating,4157,,,,,2022-05-23 13:21:52,10920
5f6b8930b9d9530b1b065360,ma_choice_v4_pilot2,5f6b8930b9d9530b1b065360,1,Closeness to cafes/restaurants,-1,10 min away,30 min away,direction,1907,,,,,2022-05-23 13:21:55,10921
5df86782b1f2225fb67275df,ma_choice_v4_pilot2,5df86782b1f2225fb67275df,4,Reputation of closest school,87,,,wad_att_rating,7808,,,,,2022-05-23 13:22:00,10922
5f6b8930b9d9530b1b065360,ma_choice_v4_pilot2,5f6b8930b9d9530b1b065360,2,Closeness to public transportation,-1,20 min away,30 min away,direction,2008,,,,,2022-05-23 13:22:02,10923
5f6b8930b9d9530b1b065360,ma_choice_v4_pilot2,5f6b8930b9d9530b1b065360,5,Amount of natural light,-1,A Lot,Very Little,direction,2028,,,,,2022-05-23 13:22:07,10924
5df86782b1f2225fb67275df,ma_choice_v4_pilot2,5df86782b1f2225fb67275df,1,Closeness to cafes/restaurants,0,,,wad_att_rating,7438,,,,,2022-05-23 13:22:07,10925
5f6b8930b9d9530b1b065360,ma_choice_v4_pilot2,5f6b8930b9d9530b1b065360,4,Reputation of closest school,-1,Very Good,Very Bad,direction,1707,,,,,2022-05-23 13:22:11,10926
5df86782b1f2225fb67275df,ma_choice_v4_pilot2,5df86782b1f2225fb67275df,5,Amount of natural light,0,,,wad_att_rating,4229,,,,,2022-05-23 13:22:12,10927
5df86782b1f2225fb67275df,ma_choice_v4_pilot2,5df86782b1f2225fb67275df,10,Amount of traffic,0,,,wad_att_rating,3713,,,,,2022-05-23 13:22:15,10928
5f6b8930b9d9530b1b065360,ma_choice_v4_pilot2,5f6b8930b9d9530b1b065360,11,Size of home,-1,1800 square feet,600 square feet,direction,1677,,,,,2022-05-23 13:22:16,10929
5df86782b1f2225fb67275df,ma_choice_v4_pilot2,5df86782b1f2225fb67275df,6,Year building was built,0,,,wad_att_rating,4771,,,,,2022-05-23 13:22:20,10930
5f6b8930b9d9530b1b065360,ma_choice_v4_pilot2,5f6b8930b9d9530b1b065360,8,Quality of kitchen,-1,Very Good,Very Bad,direction,3207,,,,,2022-05-23 13:22:21,10931
5df86782b1f2225fb67275df,ma_choice_v4_pilot2,5df86782b1f2225fb67275df,3,Noise pollution,0,,,wad_att_rating,3490,,,,,2022-05-23 13:22:24,10932
5f6b8930b9d9530b1b065360,ma_choice_v4_pilot2,5f6b8930b9d9530b1b065360,0,Closeness to parks,-1,10 min away,30 min away,direction,1747,,,,,2022-05-23 13:22:29,10933
5df86782b1f2225fb67275df,ma_choice_v4_pilot2,5df86782b1f2225fb67275df,11,Size of home,0,,,wad_att_rating,5337,,,,,2022-05-23 13:22:29,10934
5f6b8930b9d9530b1b065360,ma_choice_v4_pilot2,5f6b8930b9d9530b1b065360,10,Amount of traffic,-1,Very Little,A Lot,direction,2065,,,,,2022-05-23 13:22:34,10935
5df86782b1f2225fb67275df,ma_choice_v4_pilot2,5df86782b1f2225fb67275df,7,Size of yard,25,,,wad_att_rating,5131,,,,,2022-05-23 13:22:34,10936
5f6b8930b9d9530b1b065360,ma_choice_v4_pilot2,5f6b8930b9d9530b1b065360,6,Year building was built,-1,2020,1950,direction,1826,,,,,2022-05-23 13:22:38,10937
5f6b8930b9d9530b1b065360,ma_choice_v4_pilot2,5f6b8930b9d9530b1b065360,7,Size of yard,-1,600 square feet,0 square feet,direction,1918,,,,,2022-05-23 13:22:42,10938
5f6b8930b9d9530b1b065360,ma_choice_v4_pilot2,5f6b8930b9d9530b1b065360,9,Quality of heat/AC system,-1,Very Good,Very Bad,direction,1757,,,,,2022-05-23 13:22:46,10939
5c65739723f6300001380c2c,ma_choice_v4_pilot2,5c65739723f6300001380c2c,0,Size of home,1,,,ew_att_rating,32864,,,,,2022-05-23 13:24:45,10940
5c65739723f6300001380c2c,ma_choice_v4_pilot2,5c65739723f6300001380c2c,0,Reputation of closest school,1,,,ew_att_rating,32864,,,,,2022-05-23 13:24:45,10941
5c65739723f6300001380c2c,ma_choice_v4_pilot2,5c65739723f6300001380c2c,0,Quality of heat/AC system,1,,,ew_att_rating,32864,,,,,2022-05-23 13:24:45,10942
5c65739723f6300001380c2c,ma_choice_v4_pilot2,5c65739723f6300001380c2c,0,Quality of kitchen,1,,,ew_att_rating,32864,,,,,2022-05-23 13:24:45,10943
5eb44aa8de8a2a291bd522df@email.prolific.co,ma_choice_v4_pilot2,5eb44aa8de8a2a291bd522df,1,Closeness to cafes/restaurants,2,,,wad_att_rating,8918,,,,,2022-05-23 13:24:48,10944
5eb44aa8de8a2a291bd522df@email.prolific.co,ma_choice_v4_pilot2,5eb44aa8de8a2a291bd522df,8,Quality of kitchen,74,,,wad_att_rating,6256,,,,,2022-05-23 13:24:54,10945
5eb44aa8de8a2a291bd522df@email.prolific.co,ma_choice_v4_pilot2,5eb44aa8de8a2a291bd522df,3,Noise pollution,12,,,wad_att_rating,10602,,,,,2022-05-23 13:25:05,10946
5eb44aa8de8a2a291bd522df@email.prolific.co,ma_choice_v4_pilot2,5eb44aa8de8a2a291bd522df,11,Size of home,23,,,wad_att_rating,5208,,,,,2022-05-23 13:25:10,10947
5e12b8f31e2e589287ce63ae,ma_choice_v4_pilot2,5e12b8f31e2e589287ce63ae,0,Quality of heat/AC system,1,,,ew_att_rating,14394,,,,,2022-05-23 13:25:12,10948
5e12b8f31e2e589287ce63ae,ma_choice_v4_pilot2,5e12b8f31e2e589287ce63ae,0,Reputation of closest school,1,,,ew_att_rating,14394,,,,,2022-05-23 13:25:12,10949
5e12b8f31e2e589287ce63ae,ma_choice_v4_pilot2,5e12b8f31e2e589287ce63ae,0,Quality of kitchen,1,,,ew_att_rating,14394,,,,,2022-05-23 13:25:12,10950
5eb44aa8de8a2a291bd522df@email.prolific.co,ma_choice_v4_pilot2,5eb44aa8de8a2a291bd522df,2,Closeness to public transportation,0,,,wad_att_rating,2414,,,,,2022-05-23 13:25:12,10951
5eb44aa8de8a2a291bd522df@email.prolific.co,ma_choice_v4_pilot2,5eb44aa8de8a2a291bd522df,6,Year building was built,0,,,wad_att_rating,2456,,,,,2022-05-23 13:25:15,10952
5eb44aa8de8a2a291bd522df@email.prolific.co,ma_choice_v4_pilot2,5eb44aa8de8a2a291bd522df,5,Amount of natural light,11,,,wad_att_rating,3907,,,,,2022-05-23 13:25:19,10953
60e9af9a43403df7e5194222,ma_choice_v4_pilot2,60e9af9a43403df7e5194222,0,Reputation of closest school,1,,,lex_att_rating,10492,,,,,2022-05-23 13:25:19,10954
5eb44aa8de8a2a291bd522df@email.prolific.co,ma_choice_v4_pilot2,5eb44aa8de8a2a291bd522df,7,Size of yard,25,,,wad_att_rating,4503,,,,,2022-05-23 13:25:23,10955
5e12b8f31e2e589287ce63ae,ma_choice_v4_pilot2,5e12b8f31e2e589287ce63ae,1,Closeness to cafes/restaurants,0,,,wad_att_rating,5073,,,,,2022-05-23 13:25:24,10956
5eb44aa8de8a2a291bd522df@email.prolific.co,ma_choice_v4_pilot2,5eb44aa8de8a2a291bd522df,10,Amount of traffic,12,,,wad_att_rating,3628,,,,,2022-05-23 13:25:27,10957
5e12b8f31e2e589287ce63ae,ma_choice_v4_pilot2,5e12b8f31e2e589287ce63ae,9,Quality of heat/AC system,100,,,wad_att_rating,4877,,,,,2022-05-23 13:25:29,10958
5eb44aa8de8a2a291bd522df@email.prolific.co,ma_choice_v4_pilot2,5eb44aa8de8a2a291bd522df,9,Quality of heat/AC system,75,,,wad_att_rating,5788,,,,,2022-05-23 13:25:33,10959
5e12b8f31e2e589287ce63ae,ma_choice_v4_pilot2,5e12b8f31e2e589287ce63ae,7,Size of yard,0,,,wad_att_rating,4034,,,,,2022-05-23 13:25:33,10960
5e12b8f31e2e589287ce63ae,ma_choice_v4_pilot2,5e12b8f31e2e589287ce63ae,10,Amount of traffic,0,,,wad_att_rating,3161,,,,,2022-05-23 13:25:36,10961
5eb44aa8de8a2a291bd522df@email.prolific.co,ma_choice_v4_pilot2,5eb44aa8de8a2a291bd522df,4,Reputation of closest school,87,,,wad_att_rating,4646,,,,,2022-05-23 13:25:37,10962
5e12b8f31e2e589287ce63ae,ma_choice_v4_pilot2,5e12b8f31e2e589287ce63ae,6,Year building was built,0,,,wad_att_rating,3046,,,,,2022-05-23 13:25:39,10963
5eb44aa8de8a2a291bd522df@email.prolific.co,ma_choice_v4_pilot2,5eb44aa8de8a2a291bd522df,0,Closeness to parks,25,,,wad_att_rating,3804,,,,,2022-05-23 13:25:41,10964
5e12b8f31e2e589287ce63ae,ma_choice_v4_pilot2,5e12b8f31e2e589287ce63ae,4,Reputation of closest school,75,,,wad_att_rating,5546,,,,,2022-05-23 13:25:45,10965
5e12b8f31e2e589287ce63ae,ma_choice_v4_pilot2,5e12b8f31e2e589287ce63ae,3,Noise pollution,0,,,wad_att_rating,3537,,,,,2022-05-23 13:25:48,10966
5c65739723f6300001380c2c,ma_choice_v4_pilot2,5c65739723f6300001380c2c,0,Quality of kitchen,1,,,lex_att_rating,4290,,,,,2022-05-23 13:25:49,10967
60e9af9a43403df7e5194222,ma_choice_v4_pilot2,60e9af9a43403df7e5194222,10,Amount of traffic,50,,,wad_att_rating,8357,,,,,2022-05-23 13:25:51,10968
5e12b8f31e2e589287ce63ae,ma_choice_v4_pilot2,5e12b8f31e2e589287ce63ae,11,Size of home,26,,,wad_att_rating,6525,,,,,2022-05-23 13:25:55,10969
60e9af9a43403df7e5194222,ma_choice_v4_pilot2,60e9af9a43403df7e5194222,4,Reputation of closest school,98,,,wad_att_rating,6054,,,,,2022-05-23 13:25:57,10970
5e12b8f31e2e589287ce63ae,ma_choice_v4_pilot2,5e12b8f31e2e589287ce63ae,5,Amount of natural light,13,,,wad_att_rating,4686,,,,,2022-05-23 13:26:00,10971
60e9af9a43403df7e5194222,ma_choice_v4_pilot2,60e9af9a43403df7e5194222,3,Noise pollution,88,,,wad_att_rating,4970,,,,,2022-05-23 13:26:02,10972
5e12b8f31e2e589287ce63ae,ma_choice_v4_pilot2,5e12b8f31e2e589287ce63ae,2,Closeness to public transportation,0,,,wad_att_rating,3281,,,,,2022-05-23 13:26:03,10973
5e12b8f31e2e589287ce63ae,ma_choice_v4_pilot2,5e12b8f31e2e589287ce63ae,0,Closeness to parks,0,,,wad_att_rating,2774,,,,,2022-05-23 13:26:06,10974
60e9af9a43403df7e5194222,ma_choice_v4_pilot2,60e9af9a43403df7e5194222,8,Quality of kitchen,56,,,wad_att_rating,4235,,,,,2022-05-23 13:26:06,10975
5eb44aa8de8a2a291bd522df@email.prolific.co,ma_choice_v4_pilot2,5eb44aa8de8a2a291bd522df,0,Reputation of closest school,1,,,ew_att_rating,17777,,,,,2022-05-23 13:26:09,10976
5eb44aa8de8a2a291bd522df@email.prolific.co,ma_choice_v4_pilot2,5eb44aa8de8a2a291bd522df,0,Quality of kitchen,1,,,ew_att_rating,17777,,,,,2022-05-23 13:26:09,10977
5eb44aa8de8a2a291bd522df@email.prolific.co,ma_choice_v4_pilot2,5eb44aa8de8a2a291bd522df,0,Quality of heat/AC system,1,,,ew_att_rating,17777,,,,,2022-05-23 13:26:09,10978
60e9af9a43403df7e5194222,ma_choice_v4_pilot2,60e9af9a43403df7e5194222,9,Quality of heat/AC system,57,,,wad_att_rating,4292,,,,,2022-05-23 13:26:10,10979
5e12b8f31e2e589287ce63ae,ma_choice_v4_pilot2,5e12b8f31e2e589287ce63ae,8,Quality of kitchen,74,,,wad_att_rating,5752,,,,,2022-05-23 13:26:11,10980
60e9af9a43403df7e5194222,ma_choice_v4_pilot2,60e9af9a43403df7e5194222,7,Size of yard,48,,,wad_att_rating,4883,,,,,2022-05-23 13:26:15,10981
5eb44aa8de8a2a291bd522df@email.prolific.co,ma_choice_v4_pilot2,5eb44aa8de8a2a291bd522df,0,Reputation of closest school,1,,,lex_att_rating,3280,,,,,2022-05-23 13:26:18,10982
60e9af9a43403df7e5194222,ma_choice_v4_pilot2,60e9af9a43403df7e5194222,1,Closeness to cafes/restaurants,19,,,wad_att_rating,3793,,,,,2022-05-23 13:26:19,10983
5e12b8f31e2e589287ce63ae,ma_choice_v4_pilot2,5e12b8f31e2e589287ce63ae,0,Quality of heat/AC system,1,,,lex_att_rating,6221,,,,,2022-05-23 13:26:25,10984
60e9af9a43403df7e5194222,ma_choice_v4_pilot2,60e9af9a43403df7e5194222,6,Year building was built,43,,,wad_att_rating,5866,,,,,2022-05-23 13:26:25,10985
5c65739723f6300001380c2c,ma_choice_v4_pilot2,5c65739723f6300001380c2c,0,Closeness to parks,3,,,wad_att_rating,4908,,,,,2022-05-23 13:26:26,10986
60e9af9a43403df7e5194222,ma_choice_v4_pilot2,60e9af9a43403df7e5194222,0,Closeness to parks,18,,,wad_att_rating,3673,,,,,2022-05-23 13:26:29,10987
5c65739723f6300001380c2c,ma_choice_v4_pilot2,5c65739723f6300001380c2c,6,Year building was built,51,,,wad_att_rating,7036,,,,,2022-05-23 13:26:33,10988
60e9af9a43403df7e5194222,ma_choice_v4_pilot2,60e9af9a43403df7e5194222,5,Amount of natural light,38,,,wad_att_rating,5425,,,,,2022-05-23 13:26:34,10989
5c65739723f6300001380c2c,ma_choice_v4_pilot2,5c65739723f6300001380c2c,3,Noise pollution,2,,,wad_att_rating,3267,,,,,2022-05-23 13:26:37,10990
60e9af9a43403df7e5194222,ma_choice_v4_pilot2,60e9af9a43403df7e5194222,2,Closeness to public transportation,42,,,wad_att_rating,5168,,,,,2022-05-23 13:26:39,10991
5c65739723f6300001380c2c,ma_choice_v4_pilot2,5c65739723f6300001380c2c,10,Amount of traffic,6,,,wad_att_rating,3421,,,,,2022-05-23 13:26:40,10992
60e9af9a43403df7e5194222,ma_choice_v4_pilot2,60e9af9a43403df7e5194222,11,Size of home,42,,,wad_att_rating,3754,,,,,2022-05-23 13:26:43,10993
5c65739723f6300001380c2c,ma_choice_v4_pilot2,5c65739723f6300001380c2c,7,Size of yard,23,,,wad_att_rating,10080,,,,,2022-05-23 13:26:50,10994
5c65739723f6300001380c2c,ma_choice_v4_pilot2,5c65739723f6300001380c2c,2,Closeness to public transportation,3,,,wad_att_rating,10154,,,,,2022-05-23 13:27:00,10995
5c65739723f6300001380c2c,ma_choice_v4_pilot2,5c65739723f6300001380c2c,8,Quality of kitchen,89,,,wad_att_rating,4853,,,,,2022-05-23 13:27:05,10996
5c65739723f6300001380c2c,ma_choice_v4_pilot2,5c65739723f6300001380c2c,9,Quality of heat/AC system,88,,,wad_att_rating,3018,,,,,2022-05-23 13:27:08,10997
60e9af9a43403df7e5194222,ma_choice_v4_pilot2,60e9af9a43403df7e5194222,0,Noise pollution,1,,,ew_att_rating,5424,,,,,2022-05-23 13:27:10,10998
5c65739723f6300001380c2c,ma_choice_v4_pilot2,5c65739723f6300001380c2c,11,Size of home,50,,,wad_att_rating,2939,,,,,2022-05-23 13:27:11,10999
6152be1021c9ab590015a3e3,ma_choice_v4_pilot2,6152be1021c9ab590015a3e3,0,Quality of heat/AC system,1,,,lex_att_rating,12027,,,,,2022-05-23 13:27:14,11000
5c65739723f6300001380c2c,ma_choice_v4_pilot2,5c65739723f6300001380c2c,4,Reputation of closest school,70,,,wad_att_rating,3449,,,,,2022-05-23 13:27:14,11001
5c65739723f6300001380c2c,ma_choice_v4_pilot2,5c65739723f6300001380c2c,5,Amount of natural light,24,,,wad_att_rating,2341,,,,,2022-05-23 13:27:17,11002
5c65739723f6300001380c2c,ma_choice_v4_pilot2,5c65739723f6300001380c2c,1,Closeness to cafes/restaurants,22,,,wad_att_rating,5043,,,,,2022-05-23 13:27:22,11003
6152be1021c9ab590015a3e3,ma_choice_v4_pilot2,6152be1021c9ab590015a3e3,0,Size of yard,1,,,ew_att_rating,9256,,,,,2022-05-23 13:27:28,11004
6152be1021c9ab590015a3e3,ma_choice_v4_pilot2,6152be1021c9ab590015a3e3,0,Quality of heat/AC system,1,,,ew_att_rating,9256,,,,,2022-05-23 13:27:28,11005
6152be1021c9ab590015a3e3,ma_choice_v4_pilot2,6152be1021c9ab590015a3e3,0,Quality of kitchen,1,,,ew_att_rating,9256,,,,,2022-05-23 13:27:28,11006
6152be1021c9ab590015a3e3,ma_choice_v4_pilot2,6152be1021c9ab590015a3e3,0,Size of home,1,,,ew_att_rating,9256,,,,,2022-05-23 13:27:28,11007
6152be1021c9ab590015a3e3,ma_choice_v4_pilot2,6152be1021c9ab590015a3e3,8,Quality of kitchen,72,,,wad_att_rating,3996,,,,,2022-05-23 13:27:36,11008
6152be1021c9ab590015a3e3,ma_choice_v4_pilot2,6152be1021c9ab590015a3e3,3,Noise pollution,14,,,wad_att_rating,7027,,,,,2022-05-23 13:27:43,11009
6152be1021c9ab590015a3e3,ma_choice_v4_pilot2,6152be1021c9ab590015a3e3,7,Size of yard,47,,,wad_att_rating,4858,,,,,2022-05-23 13:27:48,11010
6152be1021c9ab590015a3e3,ma_choice_v4_pilot2,6152be1021c9ab590015a3e3,6,Year building was built,31,,,wad_att_rating,4115,,,,,2022-05-23 13:27:52,11011
6152be1021c9ab590015a3e3,ma_choice_v4_pilot2,6152be1021c9ab590015a3e3,10,Amount of traffic,22,,,wad_att_rating,3138,,,,,2022-05-23 13:27:55,11012
6152be1021c9ab590015a3e3,ma_choice_v4_pilot2,6152be1021c9ab590015a3e3,1,Closeness to cafes/restaurants,12,,,wad_att_rating,3029,,,,,2022-05-23 13:27:58,11013
5d649652adc4e8001a2d258d,ma_choice_v4_pilot2,5d649652adc4e8001a2d258d,4,Reputation of closest school,-1,Good,Very Bad,direction,6469,,,,,2022-05-23 13:28:01,11014
6152be1021c9ab590015a3e3,ma_choice_v4_pilot2,6152be1021c9ab590015a3e3,4,Reputation of closest school,36,,,wad_att_rating,4931,,,,,2022-05-23 13:28:03,11015
6152be1021c9ab590015a3e3,ma_choice_v4_pilot2,6152be1021c9ab590015a3e3,5,Amount of natural light,18,,,wad_att_rating,3652,,,,,2022-05-23 13:28:07,11016
6152be1021c9ab590015a3e3,ma_choice_v4_pilot2,6152be1021c9ab590015a3e3,0,Closeness to parks,12,,,wad_att_rating,2761,,,,,2022-05-23 13:28:09,11017
5d649652adc4e8001a2d258d,ma_choice_v4_pilot2,5d649652adc4e8001a2d258d,11,Size of home,-1,1200 square feet,600 square feet,direction,2790,,,,,2022-05-23 13:28:12,11018
6152be1021c9ab590015a3e3,ma_choice_v4_pilot2,6152be1021c9ab590015a3e3,2,Closeness to public transportation,0,,,wad_att_rating,3859,,,,,2022-05-23 13:28:13,11019
6152be1021c9ab590015a3e3,ma_choice_v4_pilot2,6152be1021c9ab590015a3e3,11,Size of home,63,,,wad_att_rating,3554,,,,,2022-05-23 13:28:17,11020
6152be1021c9ab590015a3e3,ma_choice_v4_pilot2,6152be1021c9ab590015a3e3,9,Quality of heat/AC system,82,,,wad_att_rating,2968,,,,,2022-05-23 13:28:20,11021
5d649652adc4e8001a2d258d,ma_choice_v4_pilot2,5d649652adc4e8001a2d258d,5,Amount of natural light,-1,A Little,A Lot,direction,3782,,,,,2022-05-23 13:28:22,11022
58060d08b869700001d70b8c,ma_choice_v4_pilot2,58060d08b869700001d70b8c,2,Closeness to public transportation,-1,15 min away,25 min away,direction,6287,,,,,2022-05-23 13:28:31,11023
5d649652adc4e8001a2d258d,ma_choice_v4_pilot2,5d649652adc4e8001a2d258d,0,Closeness to parks,-1,15 min away,30 min away,direction,2542,,,,,2022-05-23 13:28:32,11024
5d649652adc4e8001a2d258d,ma_choice_v4_pilot2,5d649652adc4e8001a2d258d,6,Year building was built,-1,1985,1950,direction,2782,,,,,2022-05-23 13:28:39,11025
58060d08b869700001d70b8c,ma_choice_v4_pilot2,58060d08b869700001d70b8c,6,Year building was built,-1,1985,1950,direction,3878,,,,,2022-05-23 13:28:42,11026
5d649652adc4e8001a2d258d,ma_choice_v4_pilot2,5d649652adc4e8001a2d258d,9,Quality of heat/AC system,-1,Very Good,Very Bad,direction,3078,,,,,2022-05-23 13:28:46,11027
5d649652adc4e8001a2d258d,ma_choice_v4_pilot2,5d649652adc4e8001a2d258d,8,Quality of kitchen,-1,Very Good,Very Bad,direction,3310,,,,,2022-05-23 13:28:55,11028
58060d08b869700001d70b8c,ma_choice_v4_pilot2,58060d08b869700001d70b8c,3,Noise pollution,-1,Moderate,Very High,direction,5191,,,,,2022-05-23 13:29:00,11029
5d649652adc4e8001a2d258d,ma_choice_v4_pilot2,5d649652adc4e8001a2d258d,3,Noise pollution,-1,Moderate,Very High,direction,2462,,,,,2022-05-23 13:29:04,11030
58060d08b869700001d70b8c,ma_choice_v4_pilot2,58060d08b869700001d70b8c,4,Reputation of closest school,-1,Good,Very Bad,direction,5704,,,,,2022-05-23 13:29:10,11031
5d649652adc4e8001a2d258d,ma_choice_v4_pilot2,5d649652adc4e8001a2d258d,2,Closeness to public transportation,-1,20 min away,30 min away,direction,3198,,,,,2022-05-23 13:29:13,11032
58060d08b869700001d70b8c,ma_choice_v4_pilot2,58060d08b869700001d70b8c,1,Closeness to cafes/restaurants,-1,20 min away,30 min away,direction,2469,,,,,2022-05-23 13:29:16,11033
6152be1021c9ab590015a3e3,ma_choice_v4_pilot2,6152be1021c9ab590015a3e3,0,Closeness to parks,-1,10 min away,30 min away,direction,2604,,,,,2022-05-23 13:29:20,11034
5d649652adc4e8001a2d258d,ma_choice_v4_pilot2,5d649652adc4e8001a2d258d,10,Amount of traffic,-1,A Moderate Amount,A Lot,direction,2222,,,,,2022-05-23 13:29:24,11035
58060d08b869700001d70b8c,ma_choice_v4_pilot2,58060d08b869700001d70b8c,7,Size of yard,-1,300 square feet,0 square feet,direction,2144,,,,,2022-05-23 13:29:24,11036
6152be1021c9ab590015a3e3,ma_choice_v4_pilot2,6152be1021c9ab590015a3e3,4,Reputation of closest school,-1,Very Good,Very Bad,direction,2386,,,,,2022-05-23 13:29:27,11037
5d649652adc4e8001a2d258d,ma_choice_v4_pilot2,5d649652adc4e8001a2d258d,1,Closeness to cafes/restaurants,-1,20 min away,30 min away,direction,2038,,,,,2022-05-23 13:29:29,11038
58060d08b869700001d70b8c,ma_choice_v4_pilot2,58060d08b869700001d70b8c,11,Size of home,-1,1800 square feet,600 square feet,direction,3000,,,,,2022-05-23 13:29:30,11039
6152be1021c9ab590015a3e3,ma_choice_v4_pilot2,6152be1021c9ab590015a3e3,7,Size of yard,-1,600 square feet,0 square feet,direction,2447,,,,,2022-05-23 13:29:33,11040
5d649652adc4e8001a2d258d,ma_choice_v4_pilot2,5d649652adc4e8001a2d258d,7,Size of yard,-1,300 square feet,0 square feet,direction,2758,,,,,2022-05-23 13:29:35,11041
58060d08b869700001d70b8c,ma_choice_v4_pilot2,58060d08b869700001d70b8c,0,Closeness to parks,-1,10 min away,20 min away,direction,2607,,,,,2022-05-23 13:29:37,11042
6152be1021c9ab590015a3e3,ma_choice_v4_pilot2,6152be1021c9ab590015a3e3,11,Size of home,-1,1800 square feet,600 square feet,direction,2095,,,,,2022-05-23 13:29:38,11043
6152be1021c9ab590015a3e3,ma_choice_v4_pilot2,6152be1021c9ab590015a3e3,5,Amount of natural light,-1,A Moderate Amount,Very Little,direction,2228,,,,,2022-05-23 13:29:45,11044
58060d08b869700001d70b8c,ma_choice_v4_pilot2,58060d08b869700001d70b8c,5,Amount of natural light,-1,A Moderate Amount,Very Little,direction,4749,,,,,2022-05-23 13:29:47,11045
6152be1021c9ab590015a3e3,ma_choice_v4_pilot2,6152be1021c9ab590015a3e3,8,Quality of kitchen,-1,Very Good,Very Bad,direction,2301,,,,,2022-05-23 13:29:52,11046
58060d08b869700001d70b8c,ma_choice_v4_pilot2,58060d08b869700001d70b8c,9,Quality of heat/AC system,-1,Good,Bad,direction,4014,,,,,2022-05-23 13:29:54,11047
6152be1021c9ab590015a3e3,ma_choice_v4_pilot2,6152be1021c9ab590015a3e3,2,Closeness to public transportation,-1,15 min away,30 min away,direction,3251,,,,,2022-05-23 13:30:01,11048
58060d08b869700001d70b8c,ma_choice_v4_pilot2,58060d08b869700001d70b8c,10,Amount of traffic,-1,Very Little,A Lot,direction,2503,,,,,2022-05-23 13:30:03,11049
6152be1021c9ab590015a3e3,ma_choice_v4_pilot2,6152be1021c9ab590015a3e3,1,Closeness to cafes/restaurants,-1,10 min away,30 min away,direction,1911,,,,,2022-05-23 13:30:06,11050
58060d08b869700001d70b8c,ma_choice_v4_pilot2,58060d08b869700001d70b8c,8,Quality of kitchen,-1,Good,Very Bad,direction,1359,,,,,2022-05-23 13:30:09,11051
6152be1021c9ab590015a3e3,ma_choice_v4_pilot2,6152be1021c9ab590015a3e3,9,Quality of heat/AC system,-1,Very Good,Very Bad,direction,2020,,,,,2022-05-23 13:30:12,11052
6152be1021c9ab590015a3e3,ma_choice_v4_pilot2,6152be1021c9ab590015a3e3,3,Noise pollution,-1,Very Low,Very High,direction,2154,,,,,2022-05-23 13:30:18,11053
6152be1021c9ab590015a3e3,ma_choice_v4_pilot2,6152be1021c9ab590015a3e3,6,Year building was built,-1,2020,1950,direction,1739,,,,,2022-05-23 13:30:23,11054
6152be1021c9ab590015a3e3,ma_choice_v4_pilot2,6152be1021c9ab590015a3e3,10,Amount of traffic,-1,Very Little,A Lot,direction,2240,,,,,2022-05-23 13:30:29,11055
5c1199258b095d00015cf0ec,ma_choice_v4_pilot2,5c1199258b095d00015cf0ec,0,Amount of traffic,1,,,ew_att_rating,19512,,,,,2022-05-23 13:30:30,11056
5c1199258b095d00015cf0ec,ma_choice_v4_pilot2,5c1199258b095d00015cf0ec,0,Quality of heat/AC system,1,,,ew_att_rating,19512,,,,,2022-05-23 13:30:30,11057
5c1199258b095d00015cf0ec,ma_choice_v4_pilot2,5c1199258b095d00015cf0ec,0,Noise pollution,1,,,ew_att_rating,19512,,,,,2022-05-23 13:30:30,11058
5c1199258b095d00015cf0ec,ma_choice_v4_pilot2,5c1199258b095d00015cf0ec,0,Noise pollution,1,,,lex_att_rating,4044,,,,,2022-05-23 13:30:40,11059
5c1199258b095d00015cf0ec,ma_choice_v4_pilot2,5c1199258b095d00015cf0ec,7,Size of yard,26,,,wad_att_rating,4034,,,,,2022-05-23 13:30:53,11060
5c1199258b095d00015cf0ec,ma_choice_v4_pilot2,5c1199258b095d00015cf0ec,5,Amount of natural light,35,,,wad_att_rating,4688,,,,,2022-05-23 13:30:58,11061
5c1199258b095d00015cf0ec,ma_choice_v4_pilot2,5c1199258b095d00015cf0ec,11,Size of home,27,,,wad_att_rating,4242,,,,,2022-05-23 13:31:02,11062
5c1199258b095d00015cf0ec,ma_choice_v4_pilot2,5c1199258b095d00015cf0ec,6,Year building was built,37,,,wad_att_rating,3488,,,,,2022-05-23 13:31:06,11063
5c1199258b095d00015cf0ec,ma_choice_v4_pilot2,5c1199258b095d00015cf0ec,4,Reputation of closest school,10,,,wad_att_rating,3235,,,,,2022-05-23 13:31:09,11064
5c1199258b095d00015cf0ec,ma_choice_v4_pilot2,5c1199258b095d00015cf0ec,10,Amount of traffic,74,,,wad_att_rating,4306,,,,,2022-05-23 13:31:13,11065
5c65739723f6300001380c2c,ma_choice_v4_pilot2,5c65739723f6300001380c2c,11,Size of home,-1,1800 square feet,600 square feet,direction,2464,,,,,2022-05-23 13:31:18,11066
5c1199258b095d00015cf0ec,ma_choice_v4_pilot2,5c1199258b095d00015cf0ec,9,Quality of heat/AC system,34,,,wad_att_rating,4920,,,,,2022-05-23 13:31:18,11067
5c1199258b095d00015cf0ec,ma_choice_v4_pilot2,5c1199258b095d00015cf0ec,8,Quality of kitchen,27,,,wad_att_rating,2907,,,,,2022-05-23 13:31:21,11068
5c65739723f6300001380c2c,ma_choice_v4_pilot2,5c65739723f6300001380c2c,0,Closeness to parks,-1,10 min away,30 min away,direction,2276,,,,,2022-05-23 13:31:24,11069
5c1199258b095d00015cf0ec,ma_choice_v4_pilot2,5c1199258b095d00015cf0ec,1,Closeness to cafes/restaurants,33,,,wad_att_rating,4242,,,,,2022-05-23 13:31:25,11070
5c1199258b095d00015cf0ec,ma_choice_v4_pilot2,5c1199258b095d00015cf0ec,2,Closeness to public transportation,9,,,wad_att_rating,4348,,,,,2022-05-23 13:31:30,11071
5c65739723f6300001380c2c,ma_choice_v4_pilot2,5c65739723f6300001380c2c,10,Amount of traffic,-1,A Little,A Lot,direction,2521,,,,,2022-05-23 13:31:30,11072
5b0ad393e9270900013b96e6,ma_choice_v4_pilot2,5b0ad393e9270900013b96e6,8,Quality of kitchen,100,,,wad_att_rating,8635,,,,,2022-05-23 13:31:31,11073
5c1199258b095d00015cf0ec,ma_choice_v4_pilot2,5c1199258b095d00015cf0ec,0,Closeness to parks,42,,,wad_att_rating,3618,,,,,2022-05-23 13:31:33,11074
5c65739723f6300001380c2c,ma_choice_v4_pilot2,5c65739723f6300001380c2c,6,Year building was built,-1,2020,1950,direction,1399,,,,,2022-05-23 13:31:34,11075
5b0ad393e9270900013b96e6,ma_choice_v4_pilot2,5b0ad393e9270900013b96e6,1,Closeness to cafes/restaurants,12,,,wad_att_rating,3684,,,,,2022-05-23 13:31:35,11076
5b0ad393e9270900013b96e6,ma_choice_v4_pilot2,5b0ad393e9270900013b96e6,10,Amount of traffic,12,,,wad_att_rating,3105,,,,,2022-05-23 13:31:38,11077
5c65739723f6300001380c2c,ma_choice_v4_pilot2,5c65739723f6300001380c2c,8,Quality of kitchen,-1,Very Good,Very Bad,direction,1476,,,,,2022-05-23 13:31:38,11078
5c1199258b095d00015cf0ec,ma_choice_v4_pilot2,5c1199258b095d00015cf0ec,3,Noise pollution,95,,,wad_att_rating,5793,,,,,2022-05-23 13:31:39,11079
5c65739723f6300001380c2c,ma_choice_v4_pilot2,5c65739723f6300001380c2c,5,Amount of natural light,-1,A Lot,Very Little,direction,1307,,,,,2022-05-23 13:31:42,11080
5b0ad393e9270900013b96e6,ma_choice_v4_pilot2,5b0ad393e9270900013b96e6,6,Year building was built,75,,,wad_att_rating,7583,,,,,2022-05-23 13:31:46,11081
5c65739723f6300001380c2c,ma_choice_v4_pilot2,5c65739723f6300001380c2c,1,Closeness to cafes/restaurants,-1,10 min away,30 min away,direction,1599,,,,,2022-05-23 13:31:47,11082
5b0ad393e9270900013b96e6,ma_choice_v4_pilot2,5b0ad393e9270900013b96e6,7,Size of yard,0,,,wad_att_rating,3425,,,,,2022-05-23 13:31:49,11083
5c65739723f6300001380c2c,ma_choice_v4_pilot2,5c65739723f6300001380c2c,2,Closeness to public transportation,-1,15 min away,30 min away,direction,1772,,,,,2022-05-23 13:31:52,11084
5b0ad393e9270900013b96e6,ma_choice_v4_pilot2,5b0ad393e9270900013b96e6,2,Closeness to public transportation,0,,,wad_att_rating,3024,,,,,2022-05-23 13:31:52,11085
