subject,version,assignmentId,trial,practice,opt1_id,opt2_id,attributes,opt1_values,opt2_values,choice,orig_choice,rt,stamp,id
5aebb2f6aa05510001ff6561,ma_choice_v4_movies_pilot1,5aebb2f6aa05510001ff6561,0,1,-1,-1,"Science Fiction,Drama,Violent,Suspense,Action,Romantic,Art,Fantasy World,Funny","37%,78%,57%,80%,69%,41%,42%,23%,35%","8%,4%,13%,0%,11%,0%,66%,57%,9%",1,,8756,2022-06-23 15:10:36,146476
5aebb2f6aa05510001ff6561,ma_choice_v4_movies_pilot1,5aebb2f6aa05510001ff6561,1,1,-1,-1,"Drama,Suspense,Romantic,Action,Art,Science Fiction,Fantasy World,Violent,Funny","61%,78%,21%,83%,69%,47%,54%,78%,47%","21%,2%,100%,20%,11%,15%,31%,1%,3%",1,,12778,2022-06-23 15:10:50,146479
5aebb2f6aa05510001ff6561,ma_choice_v4_movies_pilot1,5aebb2f6aa05510001ff6561,2,1,-1,-1,"Fantasy World,Suspense,Romantic,Science Fiction,Violent,Action,Funny,Drama,Art","26%,3%,15%,18%,1%,3%,5%,51%,99%","46%,31%,41%,48%,37%,24%,65%,14%,10%",0,,12264,2022-06-23 15:11:03,146482
5aebb2f6aa05510001ff6561,ma_choice_v4_movies_pilot1,5aebb2f6aa05510001ff6561,3,1,-1,-1,"Suspense,Fantasy World,Art,Funny,Drama,Violent,Science Fiction,Action,Romantic","1%,41%,4%,52%,5%,32%,43%,3%,1%","87%,19%,38%,12%,47%,2%,14%,33%,52%",1,,30402,2022-06-23 15:11:34,146488
5aebb2f6aa05510001ff6561,ma_choice_v4_movies_pilot1,5aebb2f6aa05510001ff6561,4,1,-1,-1,"Fantasy World,Drama,Romantic,Art,Suspense,Violent,Funny,Science Fiction,Action","61%,11%,39%,14%,18%,13%,56%,47%,18%","34%,73%,3%,79%,62%,68%,16%,24%,66%",0,,9824,2022-06-23 15:11:45,146491
5aebb2f6aa05510001ff6561,ma_choice_v4_movies_pilot1,5aebb2f6aa05510001ff6561,5,1,-1,-1,"Funny,Drama,Romantic,Suspense,Science Fiction,Violent,Art,Action,Fantasy World","64%,39%,21%,20%,51%,27%,23%,56%,66%","1%,61%,75%,54%,30%,5%,58%,34%,39%",0,,88020,2022-06-23 15:13:14,146499
5aebb2f6aa05510001ff6561,ma_choice_v4_movies_pilot1,5aebb2f6aa05510001ff6561,6,1,-1,-1,"Romantic,Fantasy World,Science Fiction,Suspense,Action,Art,Violent,Funny,Drama","18%,40%,47%,69%,36%,24%,74%,61%,15%","78%,75%,22%,10%,15%,50%,28%,16%,78%",1,,93120,2022-06-23 15:14:48,146514
5aebb2f6aa05510001ff6561,ma_choice_v4_movies_pilot1,5aebb2f6aa05510001ff6561,7,1,-1,-1,"Suspense,Science Fiction,Funny,Romantic,Violent,Drama,Action,Art,Fantasy World","48%,22%,1%,9%,26%,84%,3%,74%,34%","12%,51%,80%,35%,3%,12%,27%,8%,55%",1,,18363,2022-06-23 15:15:08,146517
5aebb2f6aa05510001ff6561,ma_choice_v4_movies_pilot1,5aebb2f6aa05510001ff6561,8,1,-1,-1,"Suspense,Drama,Romantic,Funny,Art,Science Fiction,Fantasy World,Violent,Action","90%,22%,25%,30%,13%,87%,65%,3%,79%","19%,80%,0%,1%,65%,17%,34%,39%,6%",0,,32769,2022-06-23 15:15:41,146521
5aebb2f6aa05510001ff6561,ma_choice_v4_movies_pilot1,5aebb2f6aa05510001ff6561,9,1,-1,-1,"Science Fiction,Fantasy World,Funny,Drama,Suspense,Action,Romantic,Art,Violent","45%,46%,73%,21%,24%,34%,37%,36%,30%","20%,25%,0%,65%,2%,3%,14%,70%,3%",1,,18125,2022-06-23 15:16:01,146524
5aebb2f6aa05510001ff6561,ma_choice_v4_movies_pilot1,5aebb2f6aa05510001ff6561,0,0,-1,-1,"Violent,Romantic,Fantasy World,Science Fiction,Drama,Action,Suspense,Funny,Art","1%,70%,56%,33%,5%,22%,2%,58%,7%","36%,11%,34%,10%,26%,81%,70%,1%,61%",0,,34481,2022-06-23 15:16:55,146533
5aebb2f6aa05510001ff6561,ma_choice_v4_movies_pilot1,5aebb2f6aa05510001ff6561,1,0,-1,-1,"Violent,Funny,Romantic,Fantasy World,Action,Science Fiction,Drama,Art,Suspense","68%,2%,7%,41%,32%,63%,75%,80%,76%","1%,22%,63%,68%,8%,38%,18%,9%,1%",1,,37248,2022-06-23 15:17:34,146543
5aebb2f6aa05510001ff6561,ma_choice_v4_movies_pilot1,5aebb2f6aa05510001ff6561,2,0,-1,-1,"Fantasy World,Funny,Action,Drama,Suspense,Science Fiction,Violent,Romantic,Art","41%,10%,7%,78%,80%,8%,2%,23%,43%","66%,45%,92%,21%,14%,52%,70%,3%,5%",0,,13146,2022-06-23 15:17:48,146548
5aebb2f6aa05510001ff6561,ma_choice_v4_movies_pilot1,5aebb2f6aa05510001ff6561,3,0,-1,-1,"Art,Action,Science Fiction,Drama,Violent,Funny,Fantasy World,Suspense,Romantic","33%,7%,4%,22%,1%,33%,68%,5%,73%","2%,31%,30%,79%,26%,1%,31%,84%,47%",0,,65764,2022-06-23 15:18:55,146561
614f7ff5a3f96d1ecec5053a,ma_choice_v4_movies_pilot1,614f7ff5a3f96d1ecec5053a,0,1,-1,-1,"Funny,Drama,Fantasy World,Romantic,Violent,Art,Suspense,Action,Science Fiction","9%,4%,57%,0%,13%,66%,0%,11%,8%","35%,78%,23%,41%,57%,42%,80%,69%,37%",1,,24481,2022-06-23 15:18:55,146562
5aebb2f6aa05510001ff6561,ma_choice_v4_movies_pilot1,5aebb2f6aa05510001ff6561,4,0,-1,-1,"Violent,Suspense,Art,Romantic,Drama,Science Fiction,Action,Fantasy World,Funny","37%,75%,51%,0%,23%,0%,7%,13%,1%","4%,5%,-1%,88%,64%,28%,34%,43%,21%",1,,11882,2022-06-23 15:19:08,146564
614f7ff5a3f96d1ecec5053a,ma_choice_v4_movies_pilot1,614f7ff5a3f96d1ecec5053a,1,1,-1,-1,"Funny,Science Fiction,Suspense,Action,Fantasy World,Violent,Romantic,Art,Drama","1%,17%,19%,6%,34%,39%,0%,65%,80%","30%,87%,90%,79%,65%,3%,25%,13%,22%",1,,12153,2022-06-23 15:19:08,146565
5aebb2f6aa05510001ff6561,ma_choice_v4_movies_pilot1,5aebb2f6aa05510001ff6561,5,0,-1,-1,"Fantasy World,Science Fiction,Suspense,Funny,Drama,Art,Violent,Action,Romantic","40%,21%,82%,7%,27%,18%,2%,45%,31%","76%,42%,61%,88%,58%,69%,26%,9%,5%",0,,13738,2022-06-23 15:19:22,146568
614f7ff5a3f96d1ecec5053a,ma_choice_v4_movies_pilot1,614f7ff5a3f96d1ecec5053a,2,1,-1,-1,"Fantasy World,Violent,Art,Drama,Action,Science Fiction,Funny,Suspense,Romantic","34%,26%,74%,84%,3%,22%,1%,48%,9%","55%,3%,8%,12%,27%,51%,80%,12%,35%",1,,15824,2022-06-23 15:19:25,146570
614f7ff5a3f96d1ecec5053a,ma_choice_v4_movies_pilot1,614f7ff5a3f96d1ecec5053a,3,1,-1,-1,"Fantasy World,Drama,Suspense,Science Fiction,Action,Funny,Violent,Art,Romantic","19%,47%,87%,14%,33%,12%,2%,38%,52%","41%,5%,1%,43%,3%,52%,32%,4%,1%",0,,20694,2022-06-23 15:19:46,146574
614f7ff5a3f96d1ecec5053a,ma_choice_v4_movies_pilot1,614f7ff5a3f96d1ecec5053a,4,1,-1,-1,"Violent,Art,Science Fiction,Fantasy World,Action,Romantic,Suspense,Drama,Funny","1%,11%,15%,31%,20%,100%,2%,21%,3%","78%,69%,47%,54%,83%,21%,78%,61%,47%",1,,23313,2022-06-23 15:20:11,146578
614f7ff5a3f96d1ecec5053a,ma_choice_v4_movies_pilot1,614f7ff5a3f96d1ecec5053a,5,1,-1,-1,"Romantic,Action,Art,Drama,Violent,Fantasy World,Science Fiction,Suspense,Funny","75%,34%,58%,61%,5%,39%,30%,54%,1%","21%,56%,23%,39%,27%,66%,51%,20%,64%",0,,14855,2022-06-23 15:20:27,146581
60ddc7abdf6661b9c294691f,ma_choice_v4_movies_pilot1,60ddc7abdf6661b9c294691f,0,1,-1,-1,"Drama,Action,Fantasy World,Science Fiction,Funny,Violent,Suspense,Romantic,Art","14%,24%,46%,48%,65%,37%,31%,41%,10%","51%,3%,26%,18%,5%,1%,3%,15%,99%",1,,12032,2022-06-23 15:20:29,146582
60ddc7abdf6661b9c294691f,ma_choice_v4_movies_pilot1,60ddc7abdf6661b9c294691f,1,1,-1,-1,"Violent,Suspense,Drama,Funny,Action,Art,Science Fiction,Romantic,Fantasy World","2%,87%,47%,12%,33%,38%,14%,52%,19%","32%,1%,5%,52%,3%,4%,43%,1%,41%",0,,9147,2022-06-23 15:20:39,146586
60ddc7abdf6661b9c294691f,ma_choice_v4_movies_pilot1,60ddc7abdf6661b9c294691f,2,1,-1,-1,"Art,Romantic,Suspense,Science Fiction,Action,Violent,Fantasy World,Funny,Drama","14%,39%,18%,47%,18%,13%,61%,56%,11%","79%,3%,62%,24%,66%,68%,34%,16%,73%",0,,8043,2022-06-23 15:20:48,146590
614f7ff5a3f96d1ecec5053a,ma_choice_v4_movies_pilot1,614f7ff5a3f96d1ecec5053a,6,1,-1,-1,"Funny,Violent,Romantic,Fantasy World,Suspense,Drama,Art,Science Fiction,Action","61%,74%,18%,40%,69%,15%,24%,47%,36%","16%,28%,78%,75%,10%,78%,50%,22%,15%",1,,23690,2022-06-23 15:20:51,146591
60ddc7abdf6661b9c294691f,ma_choice_v4_movies_pilot1,60ddc7abdf6661b9c294691f,3,1,-1,-1,"Violent,Action,Art,Fantasy World,Suspense,Drama,Funny,Romantic,Science Fiction","5%,34%,58%,39%,54%,61%,1%,75%,30%","27%,56%,23%,66%,20%,39%,64%,21%,51%",0,,9032,2022-06-23 15:20:58,146595
614f7ff5a3f96d1ecec5053a,ma_choice_v4_movies_pilot1,614f7ff5a3f96d1ecec5053a,7,1,-1,-1,"Fantasy World,Suspense,Art,Violent,Science Fiction,Romantic,Funny,Drama,Action","26%,3%,99%,1%,18%,15%,5%,51%,3%","46%,31%,10%,37%,48%,41%,65%,14%,24%",1,,9633,2022-06-23 15:21:02,146596
60ddc7abdf6661b9c294691f,ma_choice_v4_movies_pilot1,60ddc7abdf6661b9c294691f,4,1,-1,-1,"Art,Suspense,Romantic,Violent,Funny,Drama,Fantasy World,Science Fiction,Action","69%,78%,21%,78%,47%,61%,54%,47%,83%","11%,2%,100%,1%,3%,21%,31%,15%,20%",0,,7955,2022-06-23 15:21:07,146600
614f7ff5a3f96d1ecec5053a,ma_choice_v4_movies_pilot1,614f7ff5a3f96d1ecec5053a,8,1,-1,-1,"Art,Suspense,Action,Science Fiction,Violent,Drama,Fantasy World,Romantic,Funny","14%,18%,18%,47%,13%,11%,61%,39%,56%","79%,62%,66%,24%,68%,73%,34%,3%,16%",1,,14280,2022-06-23 15:21:17,146604
60ddc7abdf6661b9c294691f,ma_choice_v4_movies_pilot1,60ddc7abdf6661b9c294691f,5,1,-1,-1,"Art,Drama,Violent,Funny,Suspense,Action,Romantic,Science Fiction,Fantasy World","66%,4%,13%,9%,0%,11%,0%,8%,57%","42%,78%,57%,35%,80%,69%,41%,37%,23%",1,,9736,2022-06-23 15:21:18,146605
60ddc7abdf6661b9c294691f,ma_choice_v4_movies_pilot1,60ddc7abdf6661b9c294691f,6,1,-1,-1,"Funny,Art,Romantic,Drama,Violent,Fantasy World,Suspense,Science Fiction,Action","0%,70%,14%,65%,3%,25%,2%,20%,3%","73%,36%,37%,21%,30%,46%,24%,45%,34%",1,,7852,2022-06-23 15:21:27,146609
614f7ff5a3f96d1ecec5053a,ma_choice_v4_movies_pilot1,614f7ff5a3f96d1ecec5053a,9,1,-1,-1,"Violent,Drama,Suspense,Action,Art,Fantasy World,Funny,Romantic,Science Fiction","3%,65%,2%,3%,70%,25%,0%,14%,20%","30%,21%,24%,34%,36%,46%,73%,37%,45%",0,,13841,2022-06-23 15:21:32,146611
60ddc7abdf6661b9c294691f,ma_choice_v4_movies_pilot1,60ddc7abdf6661b9c294691f,7,1,-1,-1,"Funny,Action,Romantic,Fantasy World,Art,Drama,Science Fiction,Violent,Suspense","30%,79%,25%,65%,13%,22%,87%,3%,90%","1%,6%,0%,34%,65%,80%,17%,39%,19%",0,,7676,2022-06-23 15:21:36,146613
60ddc7abdf6661b9c294691f,ma_choice_v4_movies_pilot1,60ddc7abdf6661b9c294691f,8,1,-1,-1,"Art,Funny,Action,Suspense,Fantasy World,Romantic,Drama,Science Fiction,Violent","24%,61%,36%,69%,40%,18%,15%,47%,74%","50%,16%,15%,10%,75%,78%,78%,22%,28%",0,,9065,2022-06-23 15:21:46,146616
60ddc7abdf6661b9c294691f,ma_choice_v4_movies_pilot1,60ddc7abdf6661b9c294691f,9,1,-1,-1,"Fantasy World,Violent,Science Fiction,Action,Drama,Suspense,Romantic,Funny,Art","55%,3%,51%,27%,12%,12%,35%,80%,8%","34%,26%,22%,3%,84%,48%,9%,1%,74%",0,,8247,2022-06-23 15:21:55,146620
614f7ff5a3f96d1ecec5053a,ma_choice_v4_movies_pilot1,614f7ff5a3f96d1ecec5053a,0,0,-1,-1,"Violent,Science Fiction,Fantasy World,Suspense,Romantic,Funny,Art,Action,Drama","7%,52%,37%,69%,79%,43%,83%,1%,32%","51%,28%,59%,12%,37%,15%,34%,80%,8%",0,,14575,2022-06-23 15:22:09,146624
614f7ff5a3f96d1ecec5053a,ma_choice_v4_movies_pilot1,614f7ff5a3f96d1ecec5053a,1,0,-1,-1,"Romantic,Action,Violent,Suspense,Drama,Fantasy World,Art,Funny,Science Fiction","3%,84%,45%,43%,20%,31%,-1%,4%,3%","65%,17%,1%,10%,40%,55%,22%,66%,40%",1,,25267,2022-06-23 15:22:35,146630
60ddc7abdf6661b9c294691f,ma_choice_v4_movies_pilot1,60ddc7abdf6661b9c294691f,0,0,-1,-1,"Action,Art,Drama,Suspense,Romantic,Science Fiction,Violent,Fantasy World,Funny","48%,90%,68%,89%,63%,70%,6%,46%,10%","14%,16%,14%,1%,7%,33%,65%,74%,76%",1,,9118,2022-06-23 15:22:37,146631
60ddc7abdf6661b9c294691f,ma_choice_v4_movies_pilot1,60ddc7abdf6661b9c294691f,1,0,-1,-1,"Fantasy World,Romantic,Suspense,Art,Funny,Science Fiction,Drama,Violent,Action","47%,31%,20%,14%,80%,40%,14%,15%,20%","26%,10%,71%,69%,6%,14%,64%,79%,89%",0,,9212,2022-06-23 15:22:48,146634
614f7ff5a3f96d1ecec5053a,ma_choice_v4_movies_pilot1,614f7ff5a3f96d1ecec5053a,2,0,-1,-1,"Funny,Art,Romantic,Drama,Science Fiction,Action,Suspense,Fantasy World,Violent","55%,3%,45%,16%,45%,44%,42%,34%,13%","2%,45%,15%,39%,25%,14%,0%,61%,34%",0,,16921,2022-06-23 15:22:53,146637
60ddc7abdf6661b9c294691f,ma_choice_v4_movies_pilot1,60ddc7abdf6661b9c294691f,2,0,-1,-1,"Violent,Science Fiction,Art,Suspense,Funny,Fantasy World,Action,Drama,Romantic","85%,101%,50%,57%,1%,37%,75%,33%,0%","1%,42%,7%,6%,37%,91%,18%,73%,49%",1,,7735,2022-06-23 15:22:56,146638
60ddc7abdf6661b9c294691f,ma_choice_v4_movies_pilot1,60ddc7abdf6661b9c294691f,3,0,-1,-1,"Violent,Art,Suspense,Fantasy World,Science Fiction,Funny,Romantic,Drama,Action","62%,21%,73%,47%,35%,35%,13%,30%,78%","10%,57%,7%,27%,5%,0%,83%,86%,6%",1,,11330,2022-06-23 15:23:09,146641
60ddc7abdf6661b9c294691f,ma_choice_v4_movies_pilot1,60ddc7abdf6661b9c294691f,4,0,-1,-1,"Drama,Art,Romantic,Funny,Fantasy World,Violent,Action,Science Fiction,Suspense","12%,9%,2%,17%,60%,57%,5%,39%,25%","78%,42%,54%,54%,35%,10%,41%,17%,53%",1,,12623,2022-06-23 15:23:22,146644
614f7ff5a3f96d1ecec5053a,ma_choice_v4_movies_pilot1,614f7ff5a3f96d1ecec5053a,3,0,-1,-1,"Action,Fantasy World,Art,Violent,Drama,Romantic,Suspense,Science Fiction,Funny","90%,37%,25%,24%,19%,15%,30%,1%,48%","18%,61%,5%,1%,63%,51%,9%,42%,11%",0,,30792,2022-06-23 15:23:25,146646
60ddc7abdf6661b9c294691f,ma_choice_v4_movies_pilot1,60ddc7abdf6661b9c294691f,5,0,-1,-1,"Art,Violent,Science Fiction,Funny,Drama,Romantic,Action,Fantasy World,Suspense","15%,2%,41%,9%,5%,9%,28%,75%,2%","60%,30%,19%,60%,73%,74%,2%,46%,26%",0,,10753,2022-06-23 15:23:34,146648
614f7ff5a3f96d1ecec5053a,ma_choice_v4_movies_pilot1,614f7ff5a3f96d1ecec5053a,4,0,-1,-1,"Funny,Violent,Romantic,Art,Fantasy World,Suspense,Drama,Science Fiction,Action","1%,2%,43%,25%,67%,76%,16%,6%,12%","22%,71%,14%,87%,40%,15%,59%,55%,80%",0,,14988,2022-06-23 15:23:41,146651
60ddc7abdf6661b9c294691f,ma_choice_v4_movies_pilot1,60ddc7abdf6661b9c294691f,6,0,-1,-1,"Action,Romantic,Funny,Violent,Science Fiction,Drama,Suspense,Fantasy World,Art","90%,25%,72%,47%,52%,47%,64%,32%,80%","5%,2%,29%,1%,25%,4%,1%,54%,4%",1,,8809,2022-06-23 15:23:44,146652
60ddc7abdf6661b9c294691f,ma_choice_v4_movies_pilot1,60ddc7abdf6661b9c294691f,7,0,-1,-1,"Action,Violent,Funny,Drama,Romantic,Science Fiction,Fantasy World,Suspense,Art","44%,13%,55%,16%,45%,45%,34%,42%,3%","14%,34%,2%,39%,15%,25%,61%,0%,45%",0,,8940,2022-06-23 15:23:54,146655
614f7ff5a3f96d1ecec5053a,ma_choice_v4_movies_pilot1,614f7ff5a3f96d1ecec5053a,5,0,-1,-1,"Action,Science Fiction,Funny,Drama,Art,Violent,Fantasy World,Suspense,Romantic","78%,35%,35%,30%,21%,62%,47%,73%,13%","6%,5%,0%,86%,57%,10%,27%,7%,83%",0,,19108,2022-06-23 15:24:01,146657
60ddc7abdf6661b9c294691f,ma_choice_v4_movies_pilot1,60ddc7abdf6661b9c294691f,8,0,-1,-1,"Funny,Art,Science Fiction,Fantasy World,Action,Violent,Romantic,Drama,Suspense","25%,71%,42%,30%,61%,73%,0%,26%,1%","1%,24%,20%,51%,28%,1%,31%,63%,58%",0,,8142,2022-06-23 15:24:03,146659
614f7ff5a3f96d1ecec5053a,ma_choice_v4_movies_pilot1,614f7ff5a3f96d1ecec5053a,6,0,-1,-1,"Science Fiction,Action,Violent,Funny,Romantic,Art,Drama,Fantasy World,Suspense","63%,7%,12%,24%,37%,72%,76%,29%,45%","17%,30%,47%,1%,5%,13%,17%,65%,75%",0,,10434,2022-06-23 15:24:12,146661
60ddc7abdf6661b9c294691f,ma_choice_v4_movies_pilot1,60ddc7abdf6661b9c294691f,9,0,-1,-1,"Romantic,Violent,Art,Science Fiction,Suspense,Action,Drama,Fantasy World,Funny","27%,30%,31%,39%,1%,51%,30%,66%,61%","0%,2%,7%,99%,71%,14%,4%,36%,1%",0,,8553,2022-06-23 15:24:13,146663
60ddc7abdf6661b9c294691f,ma_choice_v4_movies_pilot1,60ddc7abdf6661b9c294691f,10,0,-1,-1,"Drama,Fantasy World,Suspense,Funny,Science Fiction,Action,Art,Romantic,Violent","6%,41%,4%,44%,45%,13%,23%,6%,1%","48%,81%,61%,85%,80%,42%,64%,27%,25%",1,,8302,2022-06-23 15:24:22,146665
60ddc7abdf6661b9c294691f,ma_choice_v4_movies_pilot1,60ddc7abdf6661b9c294691f,11,0,-1,-1,"Drama,Romantic,Violent,Action,Suspense,Art,Funny,Fantasy World,Science Fiction","72%,13%,69%,5%,53%,91%,0%,35%,0%","22%,36%,1%,35%,5%,20%,20%,67%,36%",1,,7788,2022-06-23 15:24:31,146667
614f7ff5a3f96d1ecec5053a,ma_choice_v4_movies_pilot1,614f7ff5a3f96d1ecec5053a,7,0,-1,-1,"Romantic,Action,Drama,Fantasy World,Suspense,Funny,Art,Violent,Science Fiction","72%,39%,7%,45%,30%,63%,9%,16%,36%","22%,12%,44%,24%,77%,2%,33%,76%,100%",0,,20362,2022-06-23 15:24:34,146670
5aebb2f6aa05510001ff6561,ma_choice_v4_movies_pilot1,5aebb2f6aa05510001ff6561,6,0,-1,-1,"Art,Romantic,Violent,Science Fiction,Suspense,Funny,Fantasy World,Drama,Action","3%,41%,16%,3%,20%,17%,49%,69%,12%","31%,10%,76%,99%,46%,43%,76%,34%,91%",0,,310888,2022-06-23 15:24:34,146671
60ddc7abdf6661b9c294691f,ma_choice_v4_movies_pilot1,60ddc7abdf6661b9c294691f,12,0,-1,-1,"Art,Suspense,Funny,Romantic,Drama,Action,Fantasy World,Science Fiction,Violent","3%,7%,72%,2%,12%,27%,35%,7%,1%","69%,28%,6%,23%,76%,3%,56%,27%,53%",1,,9381,2022-06-23 15:24:41,146673
5aebb2f6aa05510001ff6561,ma_choice_v4_movies_pilot1,5aebb2f6aa05510001ff6561,7,0,-1,-1,"Violent,Romantic,Suspense,Funny,Art,Drama,Action,Science Fiction,Fantasy World","29%,40%,21%,9%,5%,7%,74%,14%,92%","4%,95%,45%,70%,37%,48%,11%,39%,40%",1,,7328,2022-06-23 15:24:43,146674
614f7ff5a3f96d1ecec5053a,ma_choice_v4_movies_pilot1,614f7ff5a3f96d1ecec5053a,8,0,-1,-1,"Action,Art,Romantic,Suspense,Science Fiction,Drama,Fantasy World,Violent,Funny","8%,84%,47%,30%,49%,76%,62%,75%,9%","84%,36%,14%,62%,100%,36%,38%,7%,43%",1,,12446,2022-06-23 15:24:47,146675
60ddc7abdf6661b9c294691f,ma_choice_v4_movies_pilot1,60ddc7abdf6661b9c294691f,13,0,-1,-1,"Science Fiction,Violent,Fantasy World,Romantic,Funny,Art,Suspense,Drama,Action","15%,1%,35%,5%,24%,43%,3%,30%,3%","36%,49%,66%,37%,4%,23%,89%,75%,73%",0,,8545,2022-06-23 15:24:51,146677
614f7ff5a3f96d1ecec5053a,ma_choice_v4_movies_pilot1,614f7ff5a3f96d1ecec5053a,9,0,-1,-1,"Funny,Romantic,Drama,Action,Suspense,Art,Fantasy World,Violent,Science Fiction","24%,0%,51%,75%,31%,46%,54%,22%,100%","1%,26%,72%,19%,6%,-1%,28%,1%,27%",0,,12935,2022-06-23 15:25:01,146680
5aebb2f6aa05510001ff6561,ma_choice_v4_movies_pilot1,5aebb2f6aa05510001ff6561,8,0,-1,-1,"Fantasy World,Art,Funny,Drama,Suspense,Violent,Science Fiction,Romantic,Action","54%,46%,24%,51%,31%,22%,100%,0%,75%","28%,-1%,1%,72%,6%,1%,27%,26%,19%",0,,22994,2022-06-23 15:25:07,146682
60ddc7abdf6661b9c294691f,ma_choice_v4_movies_pilot1,60ddc7abdf6661b9c294691f,14,0,-1,-1,"Action,Funny,Fantasy World,Drama,Romantic,Suspense,Art,Violent,Science Fiction","3%,1%,31%,74%,26%,53%,65%,1%,15%","57%,75%,80%,10%,0%,9%,8%,21%,86%",0,,15474,2022-06-23 15:25:07,146684
60ddc7abdf6661b9c294691f,ma_choice_v4_movies_pilot1,60ddc7abdf6661b9c294691f,15,0,-1,-1,"Art,Drama,Violent,Romantic,Action,Funny,Suspense,Science Fiction,Fantasy World","25%,16%,2%,43%,12%,1%,76%,6%,67%","87%,59%,71%,14%,80%,22%,15%,55%,40%",0,,10054,2022-06-23 15:25:18,146689
614f7ff5a3f96d1ecec5053a,ma_choice_v4_movies_pilot1,614f7ff5a3f96d1ecec5053a,10,0,-1,-1,"Violent,Action,Suspense,Drama,Art,Science Fiction,Romantic,Funny,Fantasy World","53%,3%,28%,76%,69%,27%,23%,6%,56%","1%,27%,7%,12%,3%,7%,2%,72%,35%",1,,18853,2022-06-23 15:25:21,146690
60ddc7abdf6661b9c294691f,ma_choice_v4_movies_pilot1,60ddc7abdf6661b9c294691f,16,0,-1,-1,"Romantic,Art,Action,Funny,Fantasy World,Suspense,Violent,Drama,Science Fiction","68%,24%,74%,69%,64%,24%,31%,17%,67%","7%,3%,35%,2%,35%,73%,1%,45%,26%",0,,11807,2022-06-23 15:25:31,146693
614f7ff5a3f96d1ecec5053a,ma_choice_v4_movies_pilot1,614f7ff5a3f96d1ecec5053a,11,0,-1,-1,"Science Fiction,Romantic,Suspense,Action,Art,Drama,Violent,Fantasy World,Funny","20%,31%,58%,28%,24%,63%,1%,51%,1%","42%,0%,1%,61%,71%,26%,73%,30%,25%",0,,12984,2022-06-23 15:25:35,146694
60ddc7abdf6661b9c294691f,ma_choice_v4_movies_pilot1,60ddc7abdf6661b9c294691f,17,0,-1,-1,"Fantasy World,Funny,Action,Art,Suspense,Romantic,Drama,Violent,Science Fiction","45%,15%,50%,50%,84%,47%,51%,71%,23%","81%,56%,8%,5%,6%,21%,76%,15%,48%",1,,8370,2022-06-23 15:25:41,146696
60ddc7abdf6661b9c294691f,ma_choice_v4_movies_pilot1,60ddc7abdf6661b9c294691f,18,0,-1,-1,"Suspense,Science Fiction,Romantic,Fantasy World,Drama,Funny,Action,Art,Violent","61%,42%,5%,76%,58%,88%,9%,69%,26%","82%,21%,31%,40%,27%,7%,45%,18%,2%",1,,9261,2022-06-23 15:25:51,146697
614f7ff5a3f96d1ecec5053a,ma_choice_v4_movies_pilot1,614f7ff5a3f96d1ecec5053a,12,0,-1,-1,"Suspense,Drama,Fantasy World,Romantic,Violent,Action,Funny,Science Fiction,Art","27%,26%,41%,22%,15%,32%,1%,24%,74%","0%,68%,84%,2%,70%,3%,70%,79%,18%",1,,14844,2022-06-23 15:25:51,146698
60ddc7abdf6661b9c294691f,ma_choice_v4_movies_pilot1,60ddc7abdf6661b9c294691f,19,0,-1,-1,"Funny,Science Fiction,Action,Art,Violent,Romantic,Suspense,Fantasy World,Drama","37%,88%,56%,15%,1%,37%,11%,53%,4%","2%,22%,8%,54%,33%,3%,48%,32%,63%",0,,8867,2022-06-23 15:26:01,146700
614f7ff5a3f96d1ecec5053a,ma_choice_v4_movies_pilot1,614f7ff5a3f96d1ecec5053a,13,0,-1,-1,"Art,Fantasy World,Drama,Action,Romantic,Suspense,Violent,Science Fiction,Funny","5%,81%,76%,8%,21%,6%,15%,48%,56%","50%,45%,51%,50%,47%,84%,71%,23%,15%",0,,14894,2022-06-23 15:26:07,146702
60ddc7abdf6661b9c294691f,ma_choice_v4_movies_pilot1,60ddc7abdf6661b9c294691f,20,0,-1,-1,"Violent,Action,Art,Science Fiction,Fantasy World,Funny,Romantic,Suspense,Drama","57%,90%,14%,19%,37%,64%,47%,73%,36%","1%,4%,47%,44%,63%,0%,5%,11%,73%",1,,8491,2022-06-23 15:26:10,146703
5aebb2f6aa05510001ff6561,ma_choice_v4_movies_pilot1,5aebb2f6aa05510001ff6561,9,0,-1,-1,"Violent,Art,Drama,Science Fiction,Romantic,Fantasy World,Suspense,Funny,Action","88%,38%,82%,30%,5%,59%,69%,5%,26%","23%,12%,16%,2%,37%,16%,11%,83%,5%",1,,63593,2022-06-23 15:26:11,146704
60ddc7abdf6661b9c294691f,ma_choice_v4_movies_pilot1,60ddc7abdf6661b9c294691f,21,0,-1,-1,"Science Fiction,Violent,Suspense,Art,Fantasy World,Action,Romantic,Funny,Drama","9%,1%,37%,46%,17%,3%,85%,44%,91%","99%,29%,7%,18%,41%,64%,2%,7%,12%",1,,9805,2022-06-23 15:26:21,146706
60ddc7abdf6661b9c294691f,ma_choice_v4_movies_pilot1,60ddc7abdf6661b9c294691f,22,0,-1,-1,"Action,Violent,Romantic,Fantasy World,Drama,Science Fiction,Funny,Suspense,Art","3%,70%,2%,84%,68%,79%,70%,0%,18%","32%,15%,22%,41%,26%,24%,1%,27%,74%",0,,8371,2022-06-23 15:26:30,146708
614f7ff5a3f96d1ecec5053a,ma_choice_v4_movies_pilot1,614f7ff5a3f96d1ecec5053a,14,0,-1,-1,"Funny,Fantasy World,Drama,Action,Violent,Romantic,Science Fiction,Suspense,Art","78%,49%,44%,7%,3%,52%,41%,19%,7%","18%,74%,4%,89%,78%,1%,103%,49%,71%",1,,25175,2022-06-23 15:26:33,146710
60ddc7abdf6661b9c294691f,ma_choice_v4_movies_pilot1,60ddc7abdf6661b9c294691f,23,0,-1,-1,"Drama,Science Fiction,Fantasy World,Funny,Action,Art,Romantic,Suspense,Violent","6%,103%,75%,12%,41%,12%,0%,4%,5%","70%,32%,45%,53%,15%,107%,21%,25%,33%",1,,8338,2022-06-23 15:26:40,146711
5aebb2f6aa05510001ff6561,ma_choice_v4_movies_pilot1,5aebb2f6aa05510001ff6561,10,0,-1,-1,"Romantic,Art,Suspense,Funny,Action,Violent,Fantasy World,Science Fiction,Drama","32%,15%,49%,33%,57%,38%,60%,13%,68%","70%,84%,73%,7%,84%,16%,24%,41%,23%",1,,29915,2022-06-23 15:26:42,146712
60ddc7abdf6661b9c294691f,ma_choice_v4_movies_pilot1,60ddc7abdf6661b9c294691f,24,0,-1,-1,"Action,Violent,Science Fiction,Fantasy World,Suspense,Art,Drama,Romantic,Funny","12%,1%,24%,33%,14%,6%,42%,87%,67%","36%,70%,100%,74%,83%,55%,72%,0%,7%",1,,8373,2022-06-23 15:26:49,146714
614f7ff5a3f96d1ecec5053a,ma_choice_v4_movies_pilot1,614f7ff5a3f96d1ecec5053a,15,0,-1,-1,"Funny,Violent,Drama,Action,Science Fiction,Fantasy World,Art,Suspense,Romantic","11%,1%,42%,5%,30%,69%,9%,1%,46%","47%,75%,6%,81%,51%,44%,75%,35%,0%",1,,20788,2022-06-23 15:26:55,146715
60ddc7abdf6661b9c294691f,ma_choice_v4_movies_pilot1,60ddc7abdf6661b9c294691f,25,0,-1,-1,"Science Fiction,Violent,Drama,Funny,Suspense,Romantic,Action,Art,Fantasy World","3%,45%,20%,4%,43%,3%,84%,-1%,31%","40%,1%,40%,66%,10%,65%,17%,22%,55%",1,,8194,2022-06-23 15:26:58,146716
60ddc7abdf6661b9c294691f,ma_choice_v4_movies_pilot1,60ddc7abdf6661b9c294691f,26,0,-1,-1,"Funny,Fantasy World,Science Fiction,Art,Drama,Suspense,Romantic,Action,Violent","14%,46%,70%,49%,79%,73%,15%,62%,87%","66%,83%,14%,15%,11%,9%,78%,19%,13%",1,,8347,2022-06-23 15:27:08,146718
614f7ff5a3f96d1ecec5053a,ma_choice_v4_movies_pilot1,614f7ff5a3f96d1ecec5053a,16,0,-1,-1,"Art,Drama,Fantasy World,Romantic,Suspense,Violent,Action,Funny,Science Fiction","7%,73%,91%,49%,6%,1%,18%,37%,42%","50%,33%,37%,0%,57%,85%,75%,1%,101%",0,,15127,2022-06-23 15:27:11,146719
60ddc7abdf6661b9c294691f,ma_choice_v4_movies_pilot1,60ddc7abdf6661b9c294691f,27,0,-1,-1,"Art,Violent,Science Fiction,Suspense,Romantic,Action,Drama,Funny,Fantasy World","9%,1%,30%,1%,46%,5%,42%,11%,69%","75%,75%,51%,35%,0%,81%,6%,47%,44%",0,,8290,2022-06-23 15:27:17,146721
614f7ff5a3f96d1ecec5053a,ma_choice_v4_movies_pilot1,614f7ff5a3f96d1ecec5053a,17,0,-1,-1,"Violent,Action,Suspense,Romantic,Art,Science Fiction,Funny,Fantasy World,Drama","66%,5%,48%,11%,27%,14%,14%,37%,79%","5%,37%,12%,38%,6%,45%,53%,58%,15%",1,,10987,2022-06-23 15:27:23,146723
60ddc7abdf6661b9c294691f,ma_choice_v4_movies_pilot1,60ddc7abdf6661b9c294691f,28,0,-1,-1,"Action,Violent,Drama,Funny,Romantic,Art,Science Fiction,Fantasy World,Suspense","31%,26%,79%,1%,47%,2%,30%,31%,84%","7%,1%,22%,33%,73%,33%,4%,68%,5%",0,,8840,2022-06-23 15:27:27,146724
614f7ff5a3f96d1ecec5053a,ma_choice_v4_movies_pilot1,614f7ff5a3f96d1ecec5053a,18,0,-1,-1,"Romantic,Drama,Action,Funny,Art,Suspense,Science Fiction,Violent,Fantasy World","5%,58%,9%,88%,69%,61%,42%,26%,76%","31%,27%,45%,7%,18%,82%,21%,2%,40%",0,,12229,2022-06-23 15:27:36,146725
60ddc7abdf6661b9c294691f,ma_choice_v4_movies_pilot1,60ddc7abdf6661b9c294691f,29,0,-1,-1,"Fantasy World,Funny,Art,Drama,Science Fiction,Suspense,Action,Romantic,Violent","49%,13%,41%,72%,38%,79%,59%,56%,73%","15%,81%,7%,10%,3%,6%,7%,19%,8%",0,,8963,2022-06-23 15:27:37,146726
60ddc7abdf6661b9c294691f,ma_choice_v4_movies_pilot1,60ddc7abdf6661b9c294691f,30,0,-1,-1,"Drama,Violent,Fantasy World,Art,Suspense,Funny,Romantic,Science Fiction,Action","19%,24%,37%,25%,30%,48%,15%,1%,90%","63%,1%,61%,5%,9%,11%,51%,42%,18%",1,,8575,2022-06-23 15:27:46,146728
614f7ff5a3f96d1ecec5053a,ma_choice_v4_movies_pilot1,614f7ff5a3f96d1ecec5053a,19,0,-1,-1,"Art,Action,Drama,Violent,Funny,Fantasy World,Romantic,Suspense,Science Fiction","4%,5%,4%,1%,29%,54%,2%,1%,25%","80%,90%,47%,47%,72%,32%,25%,64%,52%",1,,9900,2022-06-23 15:27:47,146729
5aebb2f6aa05510001ff6561,ma_choice_v4_movies_pilot1,5aebb2f6aa05510001ff6561,11,0,-1,-1,"Fantasy World,Drama,Funny,Suspense,Art,Science Fiction,Romantic,Action,Violent","38%,36%,43%,62%,36%,100%,14%,84%,7%","62%,76%,9%,30%,84%,49%,47%,8%,75%",0,,66083,2022-06-23 15:27:49,146730
60ddc7abdf6661b9c294691f,ma_choice_v4_movies_pilot1,60ddc7abdf6661b9c294691f,31,0,-1,-1,"Action,Funny,Suspense,Art,Violent,Drama,Fantasy World,Romantic,Science Fiction","7%,4%,17%,72%,1%,71%,29%,59%,19%","77%,28%,46%,36%,66%,31%,50%,10%,64%",1,,10112,2022-06-23 15:27:58,146731
5aebb2f6aa05510001ff6561,ma_choice_v4_movies_pilot1,5aebb2f6aa05510001ff6561,12,0,-1,-1,"Suspense,Science Fiction,Fantasy World,Funny,Drama,Art,Action,Violent,Romantic","21%,29%,25%,48%,62%,36%,74%,1%,43%","57%,58%,79%,4%,13%,57%,22%,79%,13%",0,,9200,2022-06-23 15:27:59,146732
614f7ff5a3f96d1ecec5053a,ma_choice_v4_movies_pilot1,614f7ff5a3f96d1ecec5053a,20,0,-1,-1,"Funny,Science Fiction,Action,Fantasy World,Drama,Art,Violent,Romantic,Suspense","2%,22%,8%,32%,63%,54%,33%,3%,48%","37%,88%,56%,53%,4%,15%,1%,37%,11%",1,,12036,2022-06-23 15:28:00,146733
60ddc7abdf6661b9c294691f,ma_choice_v4_movies_pilot1,60ddc7abdf6661b9c294691f,32,0,-1,-1,"Suspense,Drama,Art,Funny,Romantic,Violent,Fantasy World,Science Fiction,Action","1%,6%,0%,1%,3%,61%,63%,27%,49%","26%,67%,30%,63%,53%,20%,37%,47%,25%",1,,9324,2022-06-23 15:28:08,146735
5aebb2f6aa05510001ff6561,ma_choice_v4_movies_pilot1,5aebb2f6aa05510001ff6561,13,0,-1,-1,"Fantasy World,Art,Funny,Science Fiction,Suspense,Romantic,Action,Violent,Drama","65%,13%,1%,17%,75%,5%,30%,47%,17%","29%,72%,24%,63%,45%,37%,7%,12%,76%",0,,10608,2022-06-23 15:28:11,146736
614f7ff5a3f96d1ecec5053a,ma_choice_v4_movies_pilot1,614f7ff5a3f96d1ecec5053a,21,0,-1,-1,"Suspense,Action,Art,Romantic,Violent,Fantasy World,Science Fiction,Drama,Funny","2%,19%,34%,40%,1%,48%,20%,73%,25%","74%,82%,8%,3%,65%,84%,79%,19%,5%",1,,15070,2022-06-23 15:28:16,146737
60ddc7abdf6661b9c294691f,ma_choice_v4_movies_pilot1,60ddc7abdf6661b9c294691f,33,0,-1,-1,"Violent,Art,Action,Fantasy World,Suspense,Drama,Science Fiction,Funny,Romantic","60%,54%,11%,22%,57%,78%,8%,6%,34%","1%,6%,37%,58%,8%,7%,35%,65%,4%",0,,8109,2022-06-23 15:28:17,146738
6111d2f6655febefcbacc17c,ma_choice_v4_movies_pilot1,6111d2f6655febefcbacc17c,0,1,-1,-1,"Drama,Violent,Action,Romantic,Science Fiction,Art,Fantasy World,Suspense,Funny","15%,74%,36%,18%,47%,24%,40%,69%,61%","78%,28%,15%,78%,22%,50%,75%,10%,16%",0,,22106,2022-06-23 15:28:19,146740
60ddc7abdf6661b9c294691f,ma_choice_v4_movies_pilot1,60ddc7abdf6661b9c294691f,34,0,-1,-1,"Funny,Violent,Drama,Fantasy World,Art,Romantic,Action,Suspense,Science Fiction","23%,1%,76%,14%,30%,70%,14%,19%,10%","1%,32%,7%,39%,8%,8%,79%,56%,35%",0,,8305,2022-06-23 15:28:26,146741
5aebb2f6aa05510001ff6561,ma_choice_v4_movies_pilot1,5aebb2f6aa05510001ff6561,14,0,-1,-1,"Action,Funny,Science Fiction,Drama,Fantasy World,Romantic,Art,Violent,Suspense","4%,8%,32%,51%,66%,23%,105%,27%,20%","78%,47%,101%,28%,43%,88%,33%,5%,68%",1,,16320,2022-06-23 15:28:28,146742
614f7ff5a3f96d1ecec5053a,ma_choice_v4_movies_pilot1,614f7ff5a3f96d1ecec5053a,22,0,-1,-1,"Funny,Violent,Art,Fantasy World,Drama,Romantic,Action,Science Fiction,Suspense","2%,68%,80%,41%,75%,7%,32%,63%,76%","22%,1%,9%,68%,18%,63%,8%,38%,1%",1,,16320,2022-06-23 15:28:33,146743
6111d2f6655febefcbacc17c,ma_choice_v4_movies_pilot1,6111d2f6655febefcbacc17c,1,1,-1,-1,"Action,Art,Suspense,Romantic,Violent,Drama,Science Fiction,Fantasy World,Funny","24%,10%,31%,41%,37%,14%,48%,46%,65%","3%,99%,3%,15%,1%,51%,18%,26%,5%",0,,14001,2022-06-23 15:28:34,146744
60ddc7abdf6661b9c294691f,ma_choice_v4_movies_pilot1,60ddc7abdf6661b9c294691f,35,0,-1,-1,"Fantasy World,Suspense,Romantic,Action,Drama,Funny,Science Fiction,Violent,Art","39%,32%,1%,15%,70%,1%,17%,71%,38%","66%,10%,37%,78%,29%,52%,45%,15%,4%",0,,8871,2022-06-23 15:28:36,146745
614f7ff5a3f96d1ecec5053a,ma_choice_v4_movies_pilot1,614f7ff5a3f96d1ecec5053a,23,0,-1,-1,"Action,Romantic,Violent,Drama,Fantasy World,Funny,Science Fiction,Art,Suspense","81%,11%,36%,26%,34%,1%,10%,61%,70%","22%,70%,1%,5%,56%,58%,33%,7%,2%",0,,8217,2022-06-23 15:28:43,146746
60ddc7abdf6661b9c294691f,ma_choice_v4_movies_pilot1,60ddc7abdf6661b9c294691f,36,0,-1,-1,"Action,Art,Fantasy World,Romantic,Funny,Science Fiction,Violent,Suspense,Drama","48%,11%,53%,22%,32%,47%,32%,1%,5%","14%,64%,32%,1%,1%,16%,3%,81%,69%",1,,8495,2022-06-23 15:28:46,146748
5aebb2f6aa05510001ff6561,ma_choice_v4_movies_pilot1,5aebb2f6aa05510001ff6561,15,0,-1,-1,"Romantic,Fantasy World,Violent,Action,Suspense,Science Fiction,Art,Funny,Drama","24%,45%,1%,60%,13%,25%,44%,5%,9%","76%,24%,29%,18%,55%,0%,71%,60%,85%",0,,17107,2022-06-23 15:28:46,146749
6111d2f6655febefcbacc17c,ma_choice_v4_movies_pilot1,6111d2f6655febefcbacc17c,2,1,-1,-1,"Funny,Science Fiction,Drama,Violent,Suspense,Art,Fantasy World,Romantic,Action","35%,37%,78%,57%,80%,42%,23%,41%,69%","9%,8%,4%,13%,0%,66%,57%,0%,11%",0,,12096,2022-06-23 15:28:47,146750
614f7ff5a3f96d1ecec5053a,ma_choice_v4_movies_pilot1,614f7ff5a3f96d1ecec5053a,24,0,-1,-1,"Art,Funny,Romantic,Suspense,Action,Drama,Violent,Fantasy World,Science Fiction","43%,10%,23%,80%,7%,78%,2%,41%,8%","5%,45%,3%,14%,92%,21%,70%,66%,52%",0,,11591,2022-06-23 15:28:55,146751
60ddc7abdf6661b9c294691f,ma_choice_v4_movies_pilot1,60ddc7abdf6661b9c294691f,37,0,-1,-1,"Action,Science Fiction,Funny,Drama,Suspense,Fantasy World,Art,Violent,Romantic","4%,0%,6%,54%,23%,18%,87%,77%,78%","32%,35%,37%,2%,1%,41%,54%,1%,3%",1,,9423,2022-06-23 15:28:56,146752
5aebb2f6aa05510001ff6561,ma_choice_v4_movies_pilot1,5aebb2f6aa05510001ff6561,16,0,-1,-1,"Science Fiction,Violent,Action,Romantic,Suspense,Drama,Art,Fantasy World,Funny","89%,44%,35%,20%,77%,19%,9%,41%,11%","25%,14%,3%,0%,14%,77%,70%,63%,49%",1,,9781,2022-06-23 15:28:57,146753
6111d2f6655febefcbacc17c,ma_choice_v4_movies_pilot1,6111d2f6655febefcbacc17c,3,1,-1,-1,"Drama,Action,Violent,Science Fiction,Art,Romantic,Suspense,Funny,Fantasy World","5%,3%,32%,43%,4%,1%,1%,52%,41%","47%,33%,2%,14%,38%,52%,87%,12%,19%",0,,12839,2022-06-23 15:29:01,146754
5aebb2f6aa05510001ff6561,ma_choice_v4_movies_pilot1,5aebb2f6aa05510001ff6561,17,0,-1,-1,"Funny,Romantic,Drama,Art,Violent,Suspense,Science Fiction,Fantasy World,Action","35%,5%,73%,35%,49%,73%,82%,75%,34%","3%,88%,9%,2%,3%,26%,34%,44%,5%",1,,7063,2022-06-23 15:29:05,146755
614f7ff5a3f96d1ecec5053a,ma_choice_v4_movies_pilot1,614f7ff5a3f96d1ecec5053a,25,0,-1,-1,"Romantic,Action,Suspense,Art,Science Fiction,Funny,Drama,Fantasy World,Violent","4%,33%,2%,0%,22%,23%,44%,49%,54%","27%,9%,78%,62%,2%,0%,15%,23%,10%",1,,10384,2022-06-23 15:29:07,146756
60ddc7abdf6661b9c294691f,ma_choice_v4_movies_pilot1,60ddc7abdf6661b9c294691f,38,0,-1,-1,"Violent,Action,Romantic,Suspense,Funny,Drama,Science Fiction,Fantasy World,Art","2%,3%,50%,81%,1%,71%,12%,38%,2%","22%,37%,26%,12%,24%,18%,38%,87%,44%",0,,11493,2022-06-23 15:29:09,146757
5aebb2f6aa05510001ff6561,ma_choice_v4_movies_pilot1,5aebb2f6aa05510001ff6561,18,0,-1,-1,"Funny,Art,Drama,Violent,Fantasy World,Science Fiction,Action,Suspense,Romantic","82%,2%,57%,33%,71%,56%,25%,27%,30%","13%,55%,11%,1%,29%,30%,3%,0%,74%",1,,7164,2022-06-23 15:29:14,146759
6111d2f6655febefcbacc17c,ma_choice_v4_movies_pilot1,6111d2f6655febefcbacc17c,4,1,-1,-1,"Romantic,Science Fiction,Art,Violent,Fantasy World,Funny,Suspense,Action,Drama","75%,30%,58%,5%,39%,1%,54%,34%,61%","21%,51%,23%,27%,66%,64%,20%,56%,39%",1,,13987,2022-06-23 15:29:16,146760
60ddc7abdf6661b9c294691f,ma_choice_v4_movies_pilot1,60ddc7abdf6661b9c294691f,39,0,-1,-1,"Art,Action,Suspense,Science Fiction,Fantasy World,Drama,Funny,Violent,Romantic","34%,80%,12%,28%,59%,8%,15%,51%,37%","83%,1%,69%,52%,37%,32%,43%,7%,79%",1,,8095,2022-06-23 15:29:18,146761
5aebb2f6aa05510001ff6561,ma_choice_v4_movies_pilot1,5aebb2f6aa05510001ff6561,19,0,-1,-1,"Action,Violent,Funny,Fantasy World,Art,Science Fiction,Drama,Suspense,Romantic","39%,16%,63%,45%,9%,36%,7%,30%,72%","12%,76%,2%,24%,33%,100%,44%,77%,22%",0,,7081,2022-06-23 15:29:22,146762
60ddc7abdf6661b9c294691f,ma_choice_v4_movies_pilot1,60ddc7abdf6661b9c294691f,40,0,-1,-1,"Romantic,Science Fiction,Funny,Art,Fantasy World,Drama,Violent,Suspense,Action","25%,7%,52%,10%,65%,15%,12%,55%,92%","2%,32%,1%,62%,40%,55%,75%,21%,5%",0,,8417,2022-06-23 15:29:27,146763
6111d2f6655febefcbacc17c,ma_choice_v4_movies_pilot1,6111d2f6655febefcbacc17c,5,1,-1,-1,"Science Fiction,Art,Action,Suspense,Drama,Violent,Romantic,Funny,Fantasy World","87%,13%,79%,90%,22%,3%,25%,30%,65%","17%,65%,6%,19%,80%,39%,0%,1%,34%",0,,17601,2022-06-23 15:29:34,146764
60ddc7abdf6661b9c294691f,ma_choice_v4_movies_pilot1,60ddc7abdf6661b9c294691f,41,0,-1,-1,"Art,Violent,Romantic,Funny,Fantasy World,Drama,Suspense,Action,Science Fiction","76%,27%,44%,21%,100%,64%,21%,23%,1%","10%,1%,3%,1%,49%,41%,0%,2%,28%",1,,8464,2022-06-23 15:29:37,146765
5aebb2f6aa05510001ff6561,ma_choice_v4_movies_pilot1,5aebb2f6aa05510001ff6561,20,0,-1,-1,"Violent,Science Fiction,Art,Funny,Fantasy World,Romantic,Action,Drama,Suspense","78%,46%,50%,2%,46%,2%,88%,75%,54%","1%,26%,71%,33%,24%,78%,2%,22%,1%",1,,15553,2022-06-23 15:29:38,146766
614f7ff5a3f96d1ecec5053a,ma_choice_v4_movies_pilot1,614f7ff5a3f96d1ecec5053a,26,0,-1,-1,"Fantasy World,Action,Art,Science Fiction,Violent,Drama,Funny,Romantic,Suspense","47%,20%,14%,40%,15%,14%,80%,31%,20%","26%,89%,69%,14%,79%,64%,6%,10%,71%",0,,33452,2022-06-23 15:29:41,146767
60ddc7abdf6661b9c294691f,ma_choice_v4_movies_pilot1,60ddc7abdf6661b9c294691f,42,0,-1,-1,"Suspense,Funny,Romantic,Fantasy World,Violent,Science Fiction,Drama,Art,Action","54%,5%,51%,39%,52%,50%,72%,18%,35%","1%,35%,0%,60%,4%,28%,17%,85%,3%",0,,8712,2022-06-23 15:29:46,146769
6111d2f6655febefcbacc17c,ma_choice_v4_movies_pilot1,6111d2f6655febefcbacc17c,6,1,-1,-1,"Drama,Violent,Fantasy World,Suspense,Romantic,Science Fiction,Action,Art,Funny","65%,3%,25%,2%,14%,20%,3%,70%,0%","21%,30%,46%,24%,37%,45%,34%,36%,73%",1,,11863,2022-06-23 15:29:47,146770
5aebb2f6aa05510001ff6561,ma_choice_v4_movies_pilot1,5aebb2f6aa05510001ff6561,21,0,-1,-1,"Drama,Funny,Art,Violent,Science Fiction,Action,Suspense,Romantic,Fantasy World","91%,2%,81%,62%,0%,11%,65%,17%,12%","3%,82%,20%,1%,32%,90%,8%,42%,37%",1,,13591,2022-06-23 15:29:53,146771
614f7ff5a3f96d1ecec5053a,ma_choice_v4_movies_pilot1,614f7ff5a3f96d1ecec5053a,27,0,-1,-1,"Fantasy World,Science Fiction,Suspense,Action,Romantic,Drama,Funny,Violent,Art","46%,70%,89%,48%,63%,68%,10%,6%,90%","74%,33%,1%,14%,7%,14%,76%,65%,16%",0,,11198,2022-06-23 15:29:53,146772
60ddc7abdf6661b9c294691f,ma_choice_v4_movies_pilot1,60ddc7abdf6661b9c294691f,43,0,-1,-1,"Drama,Fantasy World,Romantic,Science Fiction,Art,Action,Funny,Suspense,Violent","74%,42%,52%,27%,28%,23%,3%,49%,100%","9%,65%,15%,57%,2%,56%,62%,12%,3%",0,,8989,2022-06-23 15:29:57,146773
5aebb2f6aa05510001ff6561,ma_choice_v4_movies_pilot1,5aebb2f6aa05510001ff6561,22,0,-1,-1,"Romantic,Drama,Action,Suspense,Art,Funny,Science Fiction,Fantasy World,Violent","0%,33%,75%,57%,50%,1%,101%,37%,85%","49%,73%,18%,6%,7%,37%,42%,91%,1%",1,,7155,2022-06-23 15:30:01,146774
6111d2f6655febefcbacc17c,ma_choice_v4_movies_pilot1,6111d2f6655febefcbacc17c,7,1,-1,-1,"Science Fiction,Romantic,Suspense,Violent,Fantasy World,Action,Art,Funny,Drama","47%,39%,18%,13%,61%,18%,14%,56%,11%","24%,3%,62%,68%,34%,66%,79%,16%,73%",0,,14489,2022-06-23 15:30:03,146775
60ddc7abdf6661b9c294691f,ma_choice_v4_movies_pilot1,60ddc7abdf6661b9c294691f,44,0,-1,-1,"Romantic,Fantasy World,Action,Suspense,Funny,Drama,Science Fiction,Art,Violent","21%,88%,91%,16%,71%,31%,76%,16%,22%","1%,38%,14%,64%,1%,3%,14%,39%,43%",0,,8304,2022-06-23 15:30:06,146777
614f7ff5a3f96d1ecec5053a,ma_choice_v4_movies_pilot1,614f7ff5a3f96d1ecec5053a,28,0,-1,-1,"Art,Drama,Funny,Action,Suspense,Violent,Science Fiction,Fantasy World,Romantic","55%,11%,13%,3%,0%,1%,30%,29%,74%","2%,57%,82%,25%,27%,33%,56%,71%,30%",1,,14307,2022-06-23 15:30:09,146778
5aebb2f6aa05510001ff6561,ma_choice_v4_movies_pilot1,5aebb2f6aa05510001ff6561,23,0,-1,-1,"Drama,Action,Fantasy World,Violent,Science Fiction,Funny,Suspense,Romantic,Art","14%,14%,74%,65%,33%,76%,1%,7%,16%","68%,48%,46%,6%,70%,10%,89%,63%,90%",1,,7037,2022-06-23 15:30:09,146779
6111d2f6655febefcbacc17c,ma_choice_v4_movies_pilot1,6111d2f6655febefcbacc17c,8,1,-1,-1,"Suspense,Drama,Action,Romantic,Art,Violent,Funny,Science Fiction,Fantasy World","2%,21%,20%,100%,11%,1%,3%,15%,31%","78%,61%,83%,21%,69%,78%,47%,47%,54%",1,,10691,2022-06-23 15:30:14,146780
60ddc7abdf6661b9c294691f,ma_choice_v4_movies_pilot1,60ddc7abdf6661b9c294691f,45,0,-1,-1,"Suspense,Drama,Action,Romantic,Art,Funny,Fantasy World,Violent,Science Fiction","21%,62%,74%,43%,36%,48%,25%,1%,29%","57%,13%,22%,13%,57%,4%,79%,79%,58%",1,,9174,2022-06-23 15:30:16,146781
5aebb2f6aa05510001ff6561,ma_choice_v4_movies_pilot1,5aebb2f6aa05510001ff6561,24,0,-1,-1,"Drama,Fantasy World,Violent,Art,Funny,Science Fiction,Suspense,Action,Romantic","30%,66%,30%,31%,61%,39%,1%,51%,27%","4%,36%,2%,7%,1%,99%,71%,14%,0%",1,,7186,2022-06-23 15:30:17,146782
614f7ff5a3f96d1ecec5053a,ma_choice_v4_movies_pilot1,614f7ff5a3f96d1ecec5053a,29,0,-1,-1,"Drama,Suspense,Science Fiction,Fantasy World,Action,Funny,Violent,Romantic,Art","67%,26%,47%,37%,25%,63%,20%,53%,30%","6%,1%,27%,63%,49%,1%,61%,3%,0%",0,,12577,2022-06-23 15:30:22,146784
60ddc7abdf6661b9c294691f,ma_choice_v4_movies_pilot1,60ddc7abdf6661b9c294691f,46,0,-1,-1,"Funny,Romantic,Science Fiction,Violent,Fantasy World,Drama,Action,Suspense,Art","13%,74%,30%,1%,29%,11%,3%,0%,55%","82%,30%,56%,33%,71%,57%,25%,27%,2%",0,,8063,2022-06-23 15:30:25,146785
6111d2f6655febefcbacc17c,ma_choice_v4_movies_pilot1,6111d2f6655febefcbacc17c,9,1,-1,-1,"Funny,Drama,Action,Fantasy World,Art,Romantic,Suspense,Violent,Science Fiction","1%,84%,3%,34%,74%,9%,48%,26%,22%","80%,12%,27%,55%,8%,35%,12%,3%,51%",1,,12665,2022-06-23 15:30:28,146786
614f7ff5a3f96d1ecec5053a,ma_choice_v4_movies_pilot1,614f7ff5a3f96d1ecec5053a,30,0,-1,-1,"Violent,Drama,Suspense,Action,Funny,Science Fiction,Romantic,Art,Fantasy World","32%,5%,1%,48%,32%,47%,22%,11%,53%","3%,69%,81%,14%,1%,16%,1%,64%,32%",1,,11579,2022-06-23 15:30:35,146788
60ddc7abdf6661b9c294691f,ma_choice_v4_movies_pilot1,60ddc7abdf6661b9c294691f,47,0,-1,-1,"Action,Science Fiction,Art,Funny,Drama,Romantic,Fantasy World,Suspense,Violent","7%,50%,38%,44%,22%,5%,55%,31%,21%","59%,18%,3%,7%,63%,33%,12%,2%,1%",1,,9609,2022-06-23 15:30:36,146790
5aebb2f6aa05510001ff6561,ma_choice_v4_movies_pilot1,5aebb2f6aa05510001ff6561,25,0,-1,-1,"Fantasy World,Art,Romantic,Science Fiction,Funny,Action,Violent,Drama,Suspense","35%,42%,54%,17%,54%,41%,10%,78%,53%","60%,9%,2%,39%,17%,5%,57%,12%,25%",0,,25303,2022-06-23 15:30:44,146791
614f7ff5a3f96d1ecec5053a,ma_choice_v4_movies_pilot1,614f7ff5a3f96d1ecec5053a,31,0,-1,-1,"Fantasy World,Drama,Violent,Action,Suspense,Funny,Romantic,Art,Science Fiction","88%,31%,22%,91%,16%,71%,21%,16%,76%","38%,3%,43%,14%,64%,1%,1%,39%,14%",0,,8130,2022-06-23 15:30:44,146792
60ddc7abdf6661b9c294691f,ma_choice_v4_movies_pilot1,60ddc7abdf6661b9c294691f,48,0,-1,-1,"Violent,Suspense,Romantic,Art,Science Fiction,Action,Funny,Fantasy World,Drama","3%,1%,14%,46%,44%,2%,2%,69%,77%","60%,35%,72%,14%,8%,91%,63%,46%,23%",1,,8912,2022-06-23 15:30:46,146793
60ddc7abdf6661b9c294691f,ma_choice_v4_movies_pilot1,60ddc7abdf6661b9c294691f,49,0,-1,-1,"Art,Suspense,Fantasy World,Violent,Drama,Action,Funny,Science Fiction,Romantic","65%,80%,34%,68%,62%,13%,6%,1%,14%","16%,19%,60%,14%,14%,71%,45%,29%,86%",0,,8685,2022-06-23 15:30:55,146795
5aebb2f6aa05510001ff6561,ma_choice_v4_movies_pilot1,5aebb2f6aa05510001ff6561,26,0,-1,-1,"Drama,Art,Romantic,Action,Funny,Science Fiction,Suspense,Fantasy World,Violent","15%,22%,39%,87%,6%,45%,79%,51%,54%","35%,90%,11%,3%,29%,22%,3%,28%,21%",1,,17201,2022-06-23 15:31:02,146798
614f7ff5a3f96d1ecec5053a,ma_choice_v4_movies_pilot1,614f7ff5a3f96d1ecec5053a,32,0,-1,-1,"Violent,Fantasy World,Action,Suspense,Art,Drama,Science Fiction,Romantic,Funny","50%,45%,3%,76%,79%,79%,26%,17%,0%","2%,78%,55%,8%,2%,21%,5%,87%,38%",1,,20150,2022-06-23 15:31:05,146799
60ddc7abdf6661b9c294691f,ma_choice_v4_movies_pilot1,60ddc7abdf6661b9c294691f,50,0,-1,-1,"Art,Funny,Violent,Drama,Romantic,Science Fiction,Fantasy World,Suspense,Action","5%,9%,29%,7%,40%,14%,92%,21%,74%","37%,70%,4%,48%,95%,39%,40%,45%,11%",1,,9195,2022-06-23 15:31:06,146800
6111d2f6655febefcbacc17c,ma_choice_v4_movies_pilot1,6111d2f6655febefcbacc17c,0,0,-1,-1,"Art,Action,Violent,Funny,Romantic,Science Fiction,Drama,Fantasy World,Suspense","8%,79%,32%,1%,8%,35%,7%,39%,56%","30%,14%,1%,23%,70%,10%,76%,14%,19%",0,,25333,2022-06-23 15:31:10,146801
5aebb2f6aa05510001ff6561,ma_choice_v4_movies_pilot1,5aebb2f6aa05510001ff6561,27,0,-1,-1,"Drama,Funny,Science Fiction,Fantasy World,Suspense,Action,Violent,Art,Romantic","79%,1%,60%,69%,57%,55%,83%,11%,5%","7%,69%,30%,46%,4%,10%,13%,31%,83%",1,,8837,2022-06-23 15:31:12,146803
60ddc7abdf6661b9c294691f,ma_choice_v4_movies_pilot1,60ddc7abdf6661b9c294691f,51,0,-1,-1,"Action,Funny,Drama,Fantasy World,Art,Violent,Romantic,Science Fiction,Suspense","9%,0%,15%,23%,62%,10%,27%,2%,78%","33%,23%,44%,49%,0%,54%,4%,22%,2%",0,,8333,2022-06-23 15:31:15,146804
6111d2f6655febefcbacc17c,ma_choice_v4_movies_pilot1,6111d2f6655febefcbacc17c,1,0,-1,-1,"Action,Romantic,Funny,Art,Drama,Fantasy World,Suspense,Science Fiction,Violent","71%,24%,23%,19%,12%,79%,78%,46%,15%","8%,3%,1%,79%,42%,34%,6%,4%,74%",0,,10859,2022-06-23 15:31:22,146805
60ddc7abdf6661b9c294691f,ma_choice_v4_movies_pilot1,60ddc7abdf6661b9c294691f,52,0,-1,-1,"Science Fiction,Art,Funny,Drama,Action,Romantic,Suspense,Fantasy World,Violent","41%,6%,32%,73%,41%,60%,50%,18%,6%","1%,82%,3%,19%,11%,5%,12%,40%,55%",0,,8288,2022-06-23 15:31:24,146806
614f7ff5a3f96d1ecec5053a,ma_choice_v4_movies_pilot1,614f7ff5a3f96d1ecec5053a,33,0,-1,-1,"Fantasy World,Funny,Drama,Science Fiction,Action,Art,Romantic,Suspense,Violent","35%,0%,72%,0%,5%,91%,13%,53%,69%","67%,20%,22%,36%,35%,20%,36%,5%,1%",1,,24120,2022-06-23 15:31:30,146807
60ddc7abdf6661b9c294691f,ma_choice_v4_movies_pilot1,60ddc7abdf6661b9c294691f,53,0,-1,-1,"Fantasy World,Art,Romantic,Suspense,Violent,Action,Science Fiction,Drama,Funny","41%,43%,23%,80%,2%,7%,8%,78%,10%","66%,5%,3%,14%,70%,92%,52%,21%,45%",0,,8125,2022-06-23 15:31:33,146808
6111d2f6655febefcbacc17c,ma_choice_v4_movies_pilot1,6111d2f6655febefcbacc17c,2,0,-1,-1,"Romantic,Drama,Science Fiction,Art,Violent,Suspense,Fantasy World,Funny,Action","0%,72%,100%,55%,70%,83%,74%,7%,36%","87%,42%,24%,6%,1%,14%,33%,67%,12%",1,,14600,2022-06-23 15:31:38,146809
5aebb2f6aa05510001ff6561,ma_choice_v4_movies_pilot1,5aebb2f6aa05510001ff6561,28,0,-1,-1,"Violent,Funny,Science Fiction,Romantic,Fantasy World,Art,Drama,Suspense,Action","1%,21%,26%,44%,51%,0%,74%,11%,7%","46%,57%,58%,4%,76%,33%,11%,39%,87%",0,,25811,2022-06-23 15:31:38,146811
60ddc7abdf6661b9c294691f,ma_choice_v4_movies_pilot1,60ddc7abdf6661b9c294691f,54,0,-1,-1,"Fantasy World,Action,Suspense,Drama,Science Fiction,Romantic,Art,Funny,Violent","62%,8%,30%,76%,49%,47%,84%,9%,75%","38%,84%,62%,36%,100%,14%,36%,43%,7%",0,,8553,2022-06-23 15:31:43,146812
614f7ff5a3f96d1ecec5053a,ma_choice_v4_movies_pilot1,614f7ff5a3f96d1ecec5053a,34,0,-1,-1,"Violent,Funny,Suspense,Romantic,Art,Science Fiction,Action,Drama,Fantasy World","1%,65%,8%,4%,6%,35%,37%,7%,58%","60%,6%,57%,34%,54%,8%,11%,78%,22%",0,,12081,2022-06-23 15:31:43,146813
5aebb2f6aa05510001ff6561,ma_choice_v4_movies_pilot1,5aebb2f6aa05510001ff6561,29,0,-1,-1,"Drama,Violent,Suspense,Science Fiction,Funny,Romantic,Action,Fantasy World,Art","74%,1%,53%,15%,1%,26%,3%,31%,65%","10%,21%,9%,86%,75%,0%,57%,80%,8%",0,,10537,2022-06-23 15:31:50,146814
6111d2f6655febefcbacc17c,ma_choice_v4_movies_pilot1,6111d2f6655febefcbacc17c,3,0,-1,-1,"Suspense,Action,Funny,Art,Fantasy World,Science Fiction,Drama,Violent,Romantic","80%,7%,10%,43%,41%,8%,78%,2%,23%","14%,92%,45%,5%,66%,52%,21%,70%,3%",1,,13142,2022-06-23 15:31:52,146815
60ddc7abdf6661b9c294691f,ma_choice_v4_movies_pilot1,60ddc7abdf6661b9c294691f,55,0,-1,-1,"Science Fiction,Action,Funny,Romantic,Fantasy World,Art,Suspense,Violent,Drama","30%,26%,5%,5%,59%,38%,69%,88%,82%","2%,5%,83%,37%,16%,12%,11%,23%,16%",0,,8239,2022-06-23 15:31:52,146816
614f7ff5a3f96d1ecec5053a,ma_choice_v4_movies_pilot1,614f7ff5a3f96d1ecec5053a,35,0,-1,-1,"Action,Science Fiction,Funny,Suspense,Fantasy World,Art,Violent,Romantic,Drama","33%,73%,41%,11%,76%,13%,35%,43%,22%","10%,8%,5%,42%,23%,61%,12%,15%,64%",0,,13981,2022-06-23 15:31:58,146818
60ddc7abdf6661b9c294691f,ma_choice_v4_movies_pilot1,60ddc7abdf6661b9c294691f,56,0,-1,-1,"Art,Funny,Suspense,Drama,Fantasy World,Science Fiction,Violent,Romantic,Action","29%,9%,19%,64%,50%,81%,11%,23%,42%","7%,50%,77%,20%,26%,22%,60%,0%,7%",1,,8226,2022-06-23 15:32:01,146820
6111d2f6655febefcbacc17c,ma_choice_v4_movies_pilot1,6111d2f6655febefcbacc17c,4,0,-1,-1,"Violent,Suspense,Drama,Fantasy World,Art,Science Fiction,Funny,Action,Romantic","46%,39%,11%,76%,33%,58%,57%,87%,4%","1%,11%,74%,51%,0%,26%,21%,7%,44%",0,,13314,2022-06-23 15:32:06,146822
614f7ff5a3f96d1ecec5053a,ma_choice_v4_movies_pilot1,614f7ff5a3f96d1ecec5053a,36,0,-1,-1,"Romantic,Violent,Drama,Funny,Science Fiction,Art,Action,Fantasy World,Suspense","68%,31%,17%,69%,67%,24%,74%,64%,24%","7%,1%,45%,2%,26%,3%,35%,35%,73%",0,,10546,2022-06-23 15:32:10,146823
60ddc7abdf6661b9c294691f,ma_choice_v4_movies_pilot1,60ddc7abdf6661b9c294691f,57,0,-1,-1,"Romantic,Violent,Art,Action,Fantasy World,Drama,Funny,Science Fiction,Suspense","5%,6%,2%,2%,57%,10%,66%,35%,5%","28%,39%,45%,23%,20%,73%,7%,9%,71%",1,,9514,2022-06-23 15:32:12,146824
60ddc7abdf6661b9c294691f,ma_choice_v4_movies_pilot1,60ddc7abdf6661b9c294691f,58,0,-1,-1,"Violent,Art,Suspense,Fantasy World,Romantic,Funny,Action,Science Fiction,Drama","13%,31%,4%,46%,83%,69%,10%,30%,7%","83%,11%,57%,69%,5%,1%,55%,60%,79%",0,,8316,2022-06-23 15:32:21,146826
6111d2f6655febefcbacc17c,ma_choice_v4_movies_pilot1,6111d2f6655febefcbacc17c,5,0,-1,-1,"Fantasy World,Funny,Art,Science Fiction,Drama,Romantic,Action,Violent,Suspense","22%,6%,54%,8%,78%,34%,11%,60%,57%","58%,65%,6%,35%,7%,4%,37%,1%,8%",1,,16999,2022-06-23 15:32:24,146827
5aebb2f6aa05510001ff6561,ma_choice_v4_movies_pilot1,5aebb2f6aa05510001ff6561,30,0,-1,-1,"Suspense,Romantic,Violent,Drama,Art,Funny,Science Fiction,Action,Fantasy World","1%,2%,1%,4%,4%,29%,25%,5%,54%","64%,25%,47%,47%,80%,72%,52%,90%,32%",1,,35505,2022-06-23 15:32:26,146830
614f7ff5a3f96d1ecec5053a,ma_choice_v4_movies_pilot1,614f7ff5a3f96d1ecec5053a,37,0,-1,-1,"Suspense,Drama,Art,Action,Violent,Romantic,Funny,Fantasy World,Science Fiction","54%,11%,1%,21%,1%,42%,6%,62%,38%","18%,42%,32%,43%,26%,3%,60%,38%,17%",0,,20755,2022-06-23 15:32:32,146831
60ddc7abdf6661b9c294691f,ma_choice_v4_movies_pilot1,60ddc7abdf6661b9c294691f,59,0,-1,-1,"Fantasy World,Romantic,Drama,Suspense,Action,Violent,Art,Funny,Science Fiction","15%,0%,65%,40%,2%,40%,89%,0%,5%","46%,89%,9%,8%,23%,4%,18%,66%,29%",1,,9091,2022-06-23 15:32:32,146832
6111d2f6655febefcbacc17c,ma_choice_v4_movies_pilot1,6111d2f6655febefcbacc17c,6,0,-1,-1,"Drama,Violent,Suspense,Funny,Action,Art,Fantasy World,Science Fiction,Romantic","7%,13%,4%,69%,10%,31%,46%,30%,83%","79%,83%,57%,1%,55%,11%,69%,60%,5%",0,,9814,2022-06-23 15:32:35,146833
5aebb2f6aa05510001ff6561,ma_choice_v4_movies_pilot1,5aebb2f6aa05510001ff6561,31,0,-1,-1,"Romantic,Action,Drama,Art,Suspense,Science Fiction,Funny,Violent,Fantasy World","20%,40%,31%,42%,9%,0%,3%,97%,67%","0%,5%,52%,17%,61%,71%,26%,1%,23%",1,,10748,2022-06-23 15:32:38,146835
614f7ff5a3f96d1ecec5053a,ma_choice_v4_movies_pilot1,614f7ff5a3f96d1ecec5053a,38,0,-1,-1,"Funny,Action,Drama,Romantic,Science Fiction,Violent,Fantasy World,Art,Suspense","1%,79%,7%,8%,35%,32%,39%,8%,56%","23%,14%,76%,70%,10%,1%,14%,30%,19%",1,,8579,2022-06-23 15:32:41,146836
60ddc7abdf6661b9c294691f,ma_choice_v4_movies_pilot1,60ddc7abdf6661b9c294691f,60,0,-1,-1,"Romantic,Drama,Action,Funny,Fantasy World,Suspense,Art,Science Fiction,Violent","15%,64%,10%,5%,23%,42%,61%,8%,12%","43%,22%,33%,41%,76%,11%,13%,73%,35%",1,,8886,2022-06-23 15:32:41,146837
60ddc7abdf6661b9c294691f,ma_choice_v4_movies_pilot1,60ddc7abdf6661b9c294691f,61,0,-1,-1,"Science Fiction,Suspense,Funny,Art,Violent,Fantasy World,Action,Drama,Romantic","17%,75%,1%,13%,47%,65%,30%,17%,5%","63%,45%,24%,72%,12%,29%,7%,76%,37%",0,,9647,2022-06-23 15:32:52,146840
6111d2f6655febefcbacc17c,ma_choice_v4_movies_pilot1,6111d2f6655febefcbacc17c,7,0,-1,-1,"Suspense,Romantic,Drama,Violent,Fantasy World,Action,Art,Science Fiction,Funny","15%,14%,59%,71%,40%,80%,87%,55%,22%","76%,43%,16%,2%,67%,12%,25%,6%,1%",0,,18808,2022-06-23 15:32:55,146842
614f7ff5a3f96d1ecec5053a,ma_choice_v4_movies_pilot1,614f7ff5a3f96d1ecec5053a,39,0,-1,-1,"Violent,Drama,Funny,Science Fiction,Fantasy World,Art,Suspense,Romantic,Action","73%,77%,2%,34%,59%,27%,2%,48%,6%","9%,47%,30%,7%,39%,79%,48%,3%,30%",0,,13354,2022-06-23 15:32:56,146843
60ddc7abdf6661b9c294691f,ma_choice_v4_movies_pilot1,60ddc7abdf6661b9c294691f,62,0,-1,-1,"Romantic,Funny,Drama,Suspense,Fantasy World,Action,Science Fiction,Violent,Art","5%,6%,77%,0%,24%,10%,10%,2%,79%","28%,65%,19%,24%,46%,68%,53%,31%,1%",1,,10784,2022-06-23 15:33:04,146844
5aebb2f6aa05510001ff6561,ma_choice_v4_movies_pilot1,5aebb2f6aa05510001ff6561,32,0,-1,-1,"Drama,Science Fiction,Fantasy World,Violent,Art,Action,Suspense,Romantic,Funny","32%,52%,37%,7%,83%,1%,69%,79%,43%","8%,28%,59%,51%,34%,80%,12%,37%,15%",0,,25155,2022-06-23 15:33:04,146845
6111d2f6655febefcbacc17c,ma_choice_v4_movies_pilot1,6111d2f6655febefcbacc17c,8,0,-1,-1,"Romantic,Drama,Suspense,Fantasy World,Art,Funny,Violent,Action,Science Fiction","15%,79%,73%,46%,49%,14%,87%,62%,70%","78%,11%,9%,83%,15%,66%,13%,19%,14%",1,,9316,2022-06-23 15:33:05,146846
614f7ff5a3f96d1ecec5053a,ma_choice_v4_movies_pilot1,614f7ff5a3f96d1ecec5053a,40,0,-1,-1,"Funny,Art,Science Fiction,Suspense,Action,Drama,Romantic,Violent,Fantasy World","66%,26%,77%,76%,92%,76%,50%,81%,37%","4%,94%,28%,12%,11%,56%,30%,18%,66%",0,,12748,2022-06-23 15:33:09,146847
60ddc7abdf6661b9c294691f,ma_choice_v4_movies_pilot1,60ddc7abdf6661b9c294691f,63,0,-1,-1,"Action,Fantasy World,Romantic,Funny,Drama,Suspense,Science Fiction,Violent,Art","56%,50%,12%,40%,50%,78%,83%,78%,8%","4%,73%,55%,8%,20%,29%,26%,20%,34%",1,,9977,2022-06-23 15:33:15,146850
6111d2f6655febefcbacc17c,ma_choice_v4_movies_pilot1,6111d2f6655febefcbacc17c,9,0,-1,-1,"Violent,Suspense,Funny,Drama,Fantasy World,Romantic,Science Fiction,Action,Art","77%,23%,6%,54%,18%,78%,0%,4%,87%","1%,1%,37%,2%,41%,3%,35%,32%,54%",1,,11555,2022-06-23 15:33:18,146851
5aebb2f6aa05510001ff6561,ma_choice_v4_movies_pilot1,5aebb2f6aa05510001ff6561,33,0,-1,-1,"Funny,Romantic,Violent,Art,Suspense,Science Fiction,Action,Fantasy World,Drama","75%,39%,4%,10%,11%,72%,51%,42%,65%","1%,7%,75%,95%,35%,40%,9%,63%,5%",0,,16359,2022-06-23 15:33:22,146853
614f7ff5a3f96d1ecec5053a,ma_choice_v4_movies_pilot1,614f7ff5a3f96d1ecec5053a,41,0,-1,-1,"Action,Science Fiction,Funny,Art,Suspense,Violent,Fantasy World,Romantic,Drama","34%,82%,35%,35%,73%,49%,75%,5%,73%","5%,34%,3%,2%,26%,3%,44%,88%,9%",0,,11531,2022-06-23 15:33:22,146854
60ddc7abdf6661b9c294691f,ma_choice_v4_movies_pilot1,60ddc7abdf6661b9c294691f,64,0,-1,-1,"Romantic,Funny,Science Fiction,Drama,Violent,Fantasy World,Action,Suspense,Art","88%,57%,23%,65%,1%,17%,2%,3%,20%","16%,4%,49%,20%,39%,47%,24%,26%,81%",0,,9779,2022-06-23 15:33:26,146856
6111d2f6655febefcbacc17c,ma_choice_v4_movies_pilot1,6111d2f6655febefcbacc17c,10,0,-1,-1,"Science Fiction,Action,Funny,Violent,Drama,Fantasy World,Suspense,Art,Romantic","40%,20%,80%,15%,14%,47%,20%,14%,31%","14%,89%,6%,79%,64%,26%,71%,69%,10%",0,,8322,2022-06-23 15:33:27,146857
60ddc7abdf6661b9c294691f,ma_choice_v4_movies_pilot1,60ddc7abdf6661b9c294691f,65,0,-1,-1,"Science Fiction,Fantasy World,Suspense,Violent,Art,Romantic,Action,Drama,Funny","4%,34%,6%,74%,79%,3%,8%,42%,1%","46%,79%,78%,15%,19%,24%,71%,12%,23%",1,,9219,2022-06-23 15:33:36,146858
6111d2f6655febefcbacc17c,ma_choice_v4_movies_pilot1,6111d2f6655febefcbacc17c,11,0,-1,-1,"Romantic,Art,Violent,Action,Fantasy World,Funny,Drama,Suspense,Science Fiction","52%,22%,13%,23%,58%,66%,28%,33%,46%","2%,94%,34%,2%,29%,1%,56%,0%,1%",0,,11796,2022-06-23 15:33:40,146859
614f7ff5a3f96d1ecec5053a,ma_choice_v4_movies_pilot1,614f7ff5a3f96d1ecec5053a,42,0,-1,-1,"Fantasy World,Romantic,Suspense,Science Fiction,Violent,Drama,Funny,Action,Art","57%,5%,5%,35%,6%,10%,66%,2%,2%","20%,28%,71%,9%,39%,73%,7%,23%,45%",1,,18334,2022-06-23 15:33:41,146861
60ddc7abdf6661b9c294691f,ma_choice_v4_movies_pilot1,60ddc7abdf6661b9c294691f,66,0,-1,-1,"Romantic,Funny,Violent,Fantasy World,Science Fiction,Drama,Action,Art,Suspense","24%,24%,68%,35%,15%,40%,56%,26%,88%","1%,58%,48%,67%,39%,9%,18%,0%,8%",0,,11587,2022-06-23 15:33:49,146863
6111d2f6655febefcbacc17c,ma_choice_v4_movies_pilot1,6111d2f6655febefcbacc17c,12,0,-1,-1,"Violent,Romantic,Science Fiction,Drama,Fantasy World,Suspense,Art,Action,Funny","1%,2%,7%,12%,35%,7%,3%,27%,72%","53%,23%,27%,76%,56%,28%,69%,3%,6%",0,,8922,2022-06-23 15:33:50,146864
614f7ff5a3f96d1ecec5053a,ma_choice_v4_movies_pilot1,614f7ff5a3f96d1ecec5053a,43,0,-1,-1,"Art,Action,Fantasy World,Drama,Violent,Science Fiction,Funny,Suspense,Romantic","81%,11%,12%,91%,62%,0%,2%,65%,17%","20%,90%,37%,3%,1%,32%,82%,8%,42%",1,,9502,2022-06-23 15:33:52,146865
60ddc7abdf6661b9c294691f,ma_choice_v4_movies_pilot1,60ddc7abdf6661b9c294691f,67,0,-1,-1,"Fantasy World,Romantic,Funny,Drama,Violent,Suspense,Art,Science Fiction,Action","51%,39%,6%,15%,54%,79%,22%,45%,87%","28%,11%,29%,35%,21%,3%,90%,22%,3%",1,,10323,2022-06-23 15:34:00,146868
6111d2f6655febefcbacc17c,ma_choice_v4_movies_pilot1,6111d2f6655febefcbacc17c,13,0,-1,-1,"Romantic,Art,Funny,Drama,Suspense,Violent,Science Fiction,Fantasy World,Action","95%,37%,70%,48%,45%,4%,39%,40%,11%","40%,5%,9%,7%,21%,29%,14%,92%,74%",0,,11747,2022-06-23 15:34:03,146870
614f7ff5a3f96d1ecec5053a,ma_choice_v4_movies_pilot1,614f7ff5a3f96d1ecec5053a,44,0,-1,-1,"Suspense,Art,Science Fiction,Fantasy World,Action,Violent,Funny,Romantic,Drama","31%,38%,50%,55%,7%,21%,44%,5%,22%","2%,3%,18%,12%,59%,1%,7%,33%,63%",1,,11394,2022-06-23 15:34:04,146871
5aebb2f6aa05510001ff6561,ma_choice_v4_movies_pilot1,5aebb2f6aa05510001ff6561,34,0,-1,-1,"Fantasy World,Art,Funny,Drama,Violent,Romantic,Science Fiction,Action,Suspense","39%,38%,1%,70%,71%,1%,17%,15%,32%","66%,4%,52%,29%,15%,37%,45%,78%,10%",1,,46868,2022-06-23 15:34:10,146872
60ddc7abdf6661b9c294691f,ma_choice_v4_movies_pilot1,60ddc7abdf6661b9c294691f,68,0,-1,-1,"Fantasy World,Science Fiction,Drama,Funny,Violent,Suspense,Action,Romantic,Art","84%,79%,19%,5%,65%,74%,82%,3%,8%","48%,20%,73%,25%,1%,2%,19%,40%,34%",1,,9101,2022-06-23 15:34:10,146873
6111d2f6655febefcbacc17c,ma_choice_v4_movies_pilot1,6111d2f6655febefcbacc17c,14,0,-1,-1,"Drama,Fantasy World,Art,Science Fiction,Action,Romantic,Funny,Violent,Suspense","4%,74%,71%,103%,89%,1%,18%,78%,49%","44%,49%,7%,41%,7%,52%,78%,3%,19%",1,,10577,2022-06-23 15:34:14,146875
60ddc7abdf6661b9c294691f,ma_choice_v4_movies_pilot1,60ddc7abdf6661b9c294691f,69,0,-1,-1,"Fantasy World,Romantic,Suspense,Drama,Art,Science Fiction,Funny,Action,Violent","63%,0%,14%,77%,70%,25%,49%,3%,14%","41%,20%,77%,19%,9%,89%,11%,35%,44%",0,,8737,2022-06-23 15:34:20,146877
614f7ff5a3f96d1ecec5053a,ma_choice_v4_movies_pilot1,614f7ff5a3f96d1ecec5053a,45,0,-1,-1,"Science Fiction,Funny,Romantic,Action,Drama,Suspense,Violent,Art,Fantasy World","86%,75%,0%,57%,10%,9%,21%,8%,80%","15%,1%,26%,3%,74%,53%,1%,65%,31%",0,,16111,2022-06-23 15:34:21,146879
5aebb2f6aa05510001ff6561,ma_choice_v4_movies_pilot1,5aebb2f6aa05510001ff6561,35,0,-1,-1,"Suspense,Fantasy World,Violent,Science Fiction,Action,Romantic,Funny,Art,Drama","14%,33%,1%,24%,12%,87%,67%,6%,42%","83%,74%,70%,100%,36%,0%,7%,55%,72%",0,,13164,2022-06-23 15:34:24,146880
6111d2f6655febefcbacc17c,ma_choice_v4_movies_pilot1,6111d2f6655febefcbacc17c,15,0,-1,-1,"Art,Violent,Drama,Funny,Romantic,Fantasy World,Science Fiction,Action,Suspense","90%,21%,35%,29%,11%,28%,22%,3%,3%","22%,54%,15%,6%,39%,51%,45%,87%,79%",1,,12211,2022-06-23 15:34:27,146881
5aebb2f6aa05510001ff6561,ma_choice_v4_movies_pilot1,5aebb2f6aa05510001ff6561,36,0,-1,-1,"Violent,Funny,Suspense,Drama,Science Fiction,Romantic,Art,Action,Fantasy World","1%,20%,5%,22%,36%,36%,20%,35%,67%","69%,0%,53%,72%,0%,13%,91%,5%,35%",0,,7559,2022-06-23 15:34:32,146884
60ddc7abdf6661b9c294691f,ma_choice_v4_movies_pilot1,60ddc7abdf6661b9c294691f,70,0,-1,-1,"Action,Fantasy World,Science Fiction,Romantic,Violent,Funny,Drama,Art,Suspense","81%,34%,10%,11%,36%,1%,26%,61%,70%","22%,56%,33%,70%,1%,58%,5%,7%,2%",1,,8712,2022-06-23 15:34:33,146885
614f7ff5a3f96d1ecec5053a,ma_choice_v4_movies_pilot1,614f7ff5a3f96d1ecec5053a,46,0,-1,-1,"Drama,Romantic,Action,Violent,Funny,Fantasy World,Suspense,Science Fiction,Art","50%,12%,56%,78%,40%,50%,78%,83%,8%","20%,55%,4%,20%,8%,73%,29%,26%,34%",1,,15260,2022-06-23 15:34:37,146887
60ddc7abdf6661b9c294691f,ma_choice_v4_movies_pilot1,60ddc7abdf6661b9c294691f,71,0,-1,-1,"Violent,Suspense,Art,Drama,Science Fiction,Action,Romantic,Funny,Fantasy World","27%,20%,105%,51%,32%,4%,23%,8%,66%","5%,68%,33%,28%,101%,78%,88%,47%,43%",1,,8598,2022-06-23 15:34:39,146889
5aebb2f6aa05510001ff6561,ma_choice_v4_movies_pilot1,5aebb2f6aa05510001ff6561,37,0,-1,-1,"Violent,Fantasy World,Funny,Drama,Romantic,Art,Suspense,Action,Science Fiction","77%,18%,6%,54%,78%,87%,23%,4%,0%","1%,41%,37%,2%,3%,54%,1%,32%,35%",1,,7602,2022-06-23 15:34:41,146890
60ddc7abdf6661b9c294691f,ma_choice_v4_movies_pilot1,60ddc7abdf6661b9c294691f,72,0,-1,-1,"Funny,Art,Romantic,Violent,Action,Drama,Science Fiction,Fantasy World,Suspense","26%,17%,0%,1%,5%,52%,71%,23%,61%","3%,42%,20%,97%,40%,31%,0%,67%,9%",0,,8649,2022-06-23 15:34:49,146894
614f7ff5a3f96d1ecec5053a,ma_choice_v4_movies_pilot1,614f7ff5a3f96d1ecec5053a,47,0,-1,-1,"Suspense,Violent,Art,Funny,Fantasy World,Romantic,Science Fiction,Action,Drama","14%,1%,6%,67%,33%,87%,24%,12%,42%","83%,70%,55%,7%,74%,0%,100%,36%,72%",0,,15768,2022-06-23 15:34:54,146896
5aebb2f6aa05510001ff6561,ma_choice_v4_movies_pilot1,5aebb2f6aa05510001ff6561,38,0,-1,-1,"Drama,Romantic,Violent,Fantasy World,Suspense,Science Fiction,Action,Funny,Art","72%,51%,52%,39%,54%,50%,35%,5%,18%","17%,0%,4%,60%,1%,28%,3%,35%,85%",1,,14447,2022-06-23 15:34:56,146898
6111d2f6655febefcbacc17c,ma_choice_v4_movies_pilot1,6111d2f6655febefcbacc17c,16,0,-1,-1,"Action,Science Fiction,Fantasy World,Suspense,Art,Drama,Romantic,Funny,Violent","18%,42%,91%,6%,7%,73%,49%,37%,1%","75%,101%,37%,57%,50%,33%,0%,1%,85%",0,,30359,2022-06-23 15:34:59,146900
60ddc7abdf6661b9c294691f,ma_choice_v4_movies_pilot1,60ddc7abdf6661b9c294691f,73,0,-1,-1,"Suspense,Violent,Fantasy World,Action,Drama,Funny,Art,Romantic,Science Fiction","54%,78%,46%,88%,75%,2%,50%,2%,46%","1%,1%,24%,2%,22%,33%,71%,78%,26%",1,,8771,2022-06-23 15:34:59,146901
5aebb2f6aa05510001ff6561,ma_choice_v4_movies_pilot1,5aebb2f6aa05510001ff6561,39,0,-1,-1,"Funny,Suspense,Fantasy World,Drama,Art,Action,Romantic,Violent,Science Fiction","48%,30%,37%,19%,25%,90%,15%,24%,1%","11%,9%,61%,63%,5%,18%,51%,1%,42%",1,,7011,2022-06-23 15:35:04,146903
60ddc7abdf6661b9c294691f,ma_choice_v4_movies_pilot1,60ddc7abdf6661b9c294691f,74,0,-1,-1,"Suspense,Romantic,Violent,Art,Science Fiction,Drama,Fantasy World,Funny,Action","46%,10%,76%,31%,99%,34%,76%,43%,91%","20%,41%,16%,3%,3%,69%,49%,17%,12%",0,,8421,2022-06-23 15:35:08,146906
5aebb2f6aa05510001ff6561,ma_choice_v4_movies_pilot1,5aebb2f6aa05510001ff6561,40,0,-1,-1,"Action,Romantic,Art,Suspense,Funny,Drama,Fantasy World,Violent,Science Fiction","28%,9%,15%,2%,9%,5%,75%,2%,41%","2%,74%,60%,26%,60%,73%,46%,30%,19%",0,,7058,2022-06-23 15:35:13,146907
60ddc7abdf6661b9c294691f,ma_choice_v4_movies_pilot1,60ddc7abdf6661b9c294691f,75,0,-1,-1,"Funny,Art,Fantasy World,Drama,Violent,Suspense,Action,Science Fiction,Romantic","7%,84%,24%,23%,16%,73%,84%,41%,70%","33%,15%,60%,68%,38%,49%,57%,13%,32%",1,,8151,2022-06-23 15:35:17,146910
6111d2f6655febefcbacc17c,ma_choice_v4_movies_pilot1,6111d2f6655febefcbacc17c,17,0,-1,-1,"Drama,Science Fiction,Violent,Fantasy World,Funny,Action,Art,Suspense,Romantic","72%,50%,52%,39%,5%,35%,18%,54%,51%","17%,28%,4%,60%,35%,3%,85%,1%,0%",0,,19357,2022-06-23 15:35:19,146912
614f7ff5a3f96d1ecec5053a,ma_choice_v4_movies_pilot1,614f7ff5a3f96d1ecec5053a,48,0,-1,-1,"Suspense,Art,Romantic,Funny,Drama,Violent,Science Fiction,Fantasy World,Action","21%,5%,40%,9%,7%,29%,14%,92%,74%","45%,37%,95%,70%,48%,4%,39%,40%,11%",1,,24015,2022-06-23 15:35:19,146913
60ddc7abdf6661b9c294691f,ma_choice_v4_movies_pilot1,60ddc7abdf6661b9c294691f,76,0,-1,-1,"Science Fiction,Violent,Art,Fantasy World,Suspense,Romantic,Funny,Drama,Action","0%,62%,81%,12%,65%,17%,2%,91%,11%","32%,1%,20%,37%,8%,42%,82%,3%,90%",0,,8262,2022-06-23 15:35:26,146916
614f7ff5a3f96d1ecec5053a,ma_choice_v4_movies_pilot1,614f7ff5a3f96d1ecec5053a,49,0,-1,-1,"Romantic,Suspense,Funny,Science Fiction,Drama,Action,Fantasy World,Art,Violent","10%,46%,43%,99%,34%,91%,76%,31%,76%","41%,20%,17%,3%,69%,12%,49%,3%,16%",0,,9533,2022-06-23 15:35:30,146917
6111d2f6655febefcbacc17c,ma_choice_v4_movies_pilot1,6111d2f6655febefcbacc17c,18,0,-1,-1,"Suspense,Fantasy World,Drama,Art,Science Fiction,Funny,Romantic,Action,Violent","57%,79%,13%,57%,58%,4%,13%,22%,79%","21%,25%,62%,36%,29%,48%,43%,74%,1%",1,,14096,2022-06-23 15:35:34,146921
60ddc7abdf6661b9c294691f,ma_choice_v4_movies_pilot1,60ddc7abdf6661b9c294691f,77,0,-1,-1,"Fantasy World,Violent,Romantic,Art,Suspense,Action,Science Fiction,Drama,Funny","38%,23%,10%,13%,7%,6%,22%,10%,66%","66%,1%,92%,71%,39%,30%,48%,32%,6%",0,,8407,2022-06-23 15:35:36,146922
614f7ff5a3f96d1ecec5053a,ma_choice_v4_movies_pilot1,614f7ff5a3f96d1ecec5053a,50,0,-1,-1,"Art,Science Fiction,Violent,Action,Drama,Romantic,Suspense,Fantasy World,Funny","88%,1%,35%,6%,8%,0%,11%,30%,1%","14%,25%,1%,35%,71%,80%,40%,53%,22%",1,,8480,2022-06-23 15:35:39,146923
60ddc7abdf6661b9c294691f,ma_choice_v4_movies_pilot1,60ddc7abdf6661b9c294691f,78,0,-1,-1,"Funny,Art,Science Fiction,Suspense,Action,Drama,Violent,Romantic,Fantasy World","73%,18%,68%,19%,64%,17%,17%,4%,34%","6%,69%,16%,77%,11%,76%,77%,82%,58%",1,,9032,2022-06-23 15:35:46,146927
6111d2f6655febefcbacc17c,ma_choice_v4_movies_pilot1,6111d2f6655febefcbacc17c,19,0,-1,-1,"Science Fiction,Action,Suspense,Art,Drama,Funny,Fantasy World,Violent,Romantic","46%,88%,54%,50%,75%,2%,46%,78%,2%","26%,2%,1%,71%,22%,33%,24%,1%,78%",0,,13307,2022-06-23 15:35:49,146928
614f7ff5a3f96d1ecec5053a,ma_choice_v4_movies_pilot1,614f7ff5a3f96d1ecec5053a,51,0,-1,-1,"Romantic,Drama,Fantasy World,Science Fiction,Violent,Art,Suspense,Action,Funny","9%,5%,75%,41%,2%,15%,2%,28%,9%","74%,73%,46%,19%,30%,60%,26%,2%,60%",1,,13277,2022-06-23 15:35:54,146932
60ddc7abdf6661b9c294691f,ma_choice_v4_movies_pilot1,60ddc7abdf6661b9c294691f,79,0,-1,-1,"Romantic,Funny,Suspense,Science Fiction,Violent,Art,Fantasy World,Drama,Action","0%,1%,75%,0%,37%,51%,13%,23%,7%","88%,21%,5%,28%,4%,-1%,43%,64%,34%",1,,9031,2022-06-23 15:35:56,146933
614f7ff5a3f96d1ecec5053a,ma_choice_v4_movies_pilot1,614f7ff5a3f96d1ecec5053a,52,0,-1,-1,"Suspense,Science Fiction,Funny,Fantasy World,Romantic,Art,Violent,Drama,Action","53%,17%,54%,35%,54%,42%,10%,78%,41%","25%,39%,17%,60%,2%,9%,57%,12%,5%",0,,10294,2022-06-23 15:36:05,146937
60ddc7abdf6661b9c294691f,ma_choice_v4_movies_pilot1,60ddc7abdf6661b9c294691f,80,0,-1,-1,"Funny,Art,Suspense,Action,Violent,Science Fiction,Romantic,Fantasy World,Drama","8%,79%,0%,5%,2%,11%,9%,93%,10%","28%,7%,54%,44%,30%,36%,77%,39%,58%",1,,8957,2022-06-23 15:36:06,146938
6111d2f6655febefcbacc17c,ma_choice_v4_movies_pilot1,6111d2f6655febefcbacc17c,20,0,-1,-1,"Science Fiction,Action,Violent,Funny,Drama,Fantasy World,Romantic,Art,Suspense","89%,35%,44%,11%,19%,41%,20%,9%,77%","25%,3%,14%,49%,77%,63%,0%,70%,14%",0,,18744,2022-06-23 15:36:08,146940
60ddc7abdf6661b9c294691f,ma_choice_v4_movies_pilot1,60ddc7abdf6661b9c294691f,81,0,-1,-1,"Fantasy World,Violent,Science Fiction,Art,Romantic,Action,Drama,Funny,Suspense","67%,1%,45%,26%,42%,21%,26%,51%,15%","36%,29%,19%,2%,9%,63%,73%,1%,45%",0,,8483,2022-06-23 15:36:15,146943
6111d2f6655febefcbacc17c,ma_choice_v4_movies_pilot1,6111d2f6655febefcbacc17c,21,0,-1,-1,"Art,Science Fiction,Violent,Romantic,Suspense,Funny,Fantasy World,Action,Drama","3%,3%,16%,41%,20%,17%,49%,12%,69%","31%,99%,76%,10%,46%,43%,76%,91%,34%",1,,13134,2022-06-23 15:36:22,146946
614f7ff5a3f96d1ecec5053a,ma_choice_v4_movies_pilot1,614f7ff5a3f96d1ecec5053a,53,0,-1,-1,"Action,Funny,Suspense,Romantic,Violent,Art,Science Fiction,Fantasy World,Drama","71%,45%,19%,86%,14%,16%,29%,60%,14%","13%,6%,80%,14%,68%,65%,1%,34%,62%",0,,18463,2022-06-23 15:36:24,146948
60ddc7abdf6661b9c294691f,ma_choice_v4_movies_pilot1,60ddc7abdf6661b9c294691f,82,0,-1,-1,"Funny,Violent,Fantasy World,Action,Drama,Science Fiction,Suspense,Romantic,Art","6%,1%,62%,21%,11%,38%,54%,42%,1%","60%,26%,38%,43%,42%,17%,18%,3%,32%",1,,8733,2022-06-23 15:36:25,146949
614f7ff5a3f96d1ecec5053a,ma_choice_v4_movies_pilot1,614f7ff5a3f96d1ecec5053a,54,0,-1,-1,"Drama,Romantic,Suspense,Art,Funny,Action,Science Fiction,Violent,Fantasy World","41%,3%,0%,10%,1%,2%,28%,1%,49%","64%,44%,21%,76%,21%,23%,1%,27%,100%",1,,8253,2022-06-23 15:36:34,146952
60ddc7abdf6661b9c294691f,ma_choice_v4_movies_pilot1,60ddc7abdf6661b9c294691f,83,0,-1,-1,"Action,Violent,Science Fiction,Romantic,Drama,Funny,Art,Suspense,Fantasy World","89%,78%,103%,1%,4%,18%,71%,49%,74%","7%,3%,41%,52%,44%,78%,7%,19%,49%",1,,8966,2022-06-23 15:36:35,146954
6111d2f6655febefcbacc17c,ma_choice_v4_movies_pilot1,6111d2f6655febefcbacc17c,22,0,-1,-1,"Romantic,Drama,Science Fiction,Action,Suspense,Violent,Art,Funny,Fantasy World","54%,78%,17%,41%,53%,10%,42%,54%,35%","2%,12%,39%,5%,25%,57%,9%,17%,60%",0,,11946,2022-06-23 15:36:35,146955
60ddc7abdf6661b9c294691f,ma_choice_v4_movies_pilot1,60ddc7abdf6661b9c294691f,84,0,-1,-1,"Fantasy World,Art,Romantic,Violent,Suspense,Action,Science Fiction,Funny,Drama","75%,55%,83%,8%,0%,8%,1%,30%,71%","44%,23%,6%,54%,63%,30%,37%,9%,15%",0,,8291,2022-06-23 15:36:44,146958
614f7ff5a3f96d1ecec5053a,ma_choice_v4_movies_pilot1,614f7ff5a3f96d1ecec5053a,55,0,-1,-1,"Violent,Suspense,Romantic,Drama,Funny,Science Fiction,Fantasy World,Art,Action","1%,4%,6%,6%,44%,45%,41%,23%,13%","25%,61%,27%,48%,85%,80%,81%,64%,42%",1,,9799,2022-06-23 15:36:44,146959
6111d2f6655febefcbacc17c,ma_choice_v4_movies_pilot1,6111d2f6655febefcbacc17c,23,0,-1,-1,"Funny,Romantic,Suspense,Science Fiction,Violent,Action,Fantasy World,Art,Drama","5%,24%,13%,25%,1%,60%,45%,44%,9%","60%,76%,55%,0%,29%,18%,24%,71%,85%",1,,14306,2022-06-23 15:36:51,146962
614f7ff5a3f96d1ecec5053a,ma_choice_v4_movies_pilot1,614f7ff5a3f96d1ecec5053a,56,0,-1,-1,"Action,Science Fiction,Violent,Drama,Fantasy World,Funny,Art,Suspense,Romantic","11%,16%,77%,76%,58%,6%,69%,77%,82%","64%,68%,17%,17%,34%,73%,18%,19%,4%",1,,9142,2022-06-23 15:36:55,146963
60ddc7abdf6661b9c294691f,ma_choice_v4_movies_pilot1,60ddc7abdf6661b9c294691f,85,0,-1,-1,"Violent,Drama,Fantasy World,Art,Science Fiction,Romantic,Action,Suspense,Funny","1%,72%,28%,-1%,27%,26%,19%,6%,1%","22%,51%,54%,46%,100%,0%,75%,31%,24%",1,,10166,2022-06-23 15:36:56,146964
614f7ff5a3f96d1ecec5053a,ma_choice_v4_movies_pilot1,614f7ff5a3f96d1ecec5053a,57,0,-1,-1,"Funny,Science Fiction,Art,Romantic,Suspense,Fantasy World,Drama,Violent,Action","0%,18%,80%,47%,2%,41%,20%,26%,5%","52%,58%,27%,25%,69%,62%,86%,4%,75%",1,,9475,2022-06-23 15:37:05,146967
60ddc7abdf6661b9c294691f,ma_choice_v4_movies_pilot1,60ddc7abdf6661b9c294691f,86,0,-1,-1,"Violent,Science Fiction,Art,Fantasy World,Romantic,Funny,Drama,Suspense,Action","75%,40%,95%,63%,7%,1%,5%,35%,9%","4%,72%,10%,42%,39%,75%,65%,11%,51%",1,,7825,2022-06-23 15:37:05,146968
6111d2f6655febefcbacc17c,ma_choice_v4_movies_pilot1,6111d2f6655febefcbacc17c,24,0,-1,-1,"Science Fiction,Violent,Fantasy World,Romantic,Suspense,Drama,Action,Funny,Art","17%,71%,39%,1%,32%,70%,15%,1%,38%","45%,15%,66%,37%,10%,29%,78%,52%,4%",1,,14774,2022-06-23 15:37:07,146970
614f7ff5a3f96d1ecec5053a,ma_choice_v4_movies_pilot1,614f7ff5a3f96d1ecec5053a,58,0,-1,-1,"Suspense,Drama,Art,Action,Romantic,Science Fiction,Violent,Funny,Fantasy World","3%,30%,43%,3%,5%,15%,1%,24%,35%","89%,75%,23%,73%,37%,36%,49%,4%,66%",1,,8417,2022-06-23 15:37:14,146972
60ddc7abdf6661b9c294691f,ma_choice_v4_movies_pilot1,60ddc7abdf6661b9c294691f,87,0,-1,-1,"Drama,Romantic,Science Fiction,Violent,Action,Suspense,Fantasy World,Funny,Art","21%,87%,5%,2%,55%,8%,78%,38%,2%","79%,17%,26%,50%,3%,76%,45%,0%,79%",0,,8408,2022-06-23 15:37:16,146974
6111d2f6655febefcbacc17c,ma_choice_v4_movies_pilot1,6111d2f6655febefcbacc17c,25,0,-1,-1,"Fantasy World,Romantic,Suspense,Art,Action,Violent,Science Fiction,Drama,Funny","53%,16%,4%,22%,24%,2%,90%,13%,67%","11%,47%,32%,53%,3%,41%,13%,78%,2%",0,,8498,2022-06-23 15:37:16,146975
60ddc7abdf6661b9c294691f,ma_choice_v4_movies_pilot1,60ddc7abdf6661b9c294691f,88,0,-1,-1,"Science Fiction,Romantic,Suspense,Funny,Action,Drama,Art,Violent,Fantasy World","58%,4%,39%,57%,87%,11%,33%,46%,76%","26%,44%,11%,21%,7%,74%,0%,1%,51%",1,,9252,2022-06-23 15:37:24,146978
6111d2f6655febefcbacc17c,ma_choice_v4_movies_pilot1,6111d2f6655febefcbacc17c,26,0,-1,-1,"Action,Fantasy World,Funny,Science Fiction,Suspense,Art,Romantic,Violent,Drama","59%,49%,13%,38%,79%,41%,56%,73%,72%","7%,15%,81%,3%,6%,7%,19%,8%,10%",1,,11268,2022-06-23 15:37:28,146980
614f7ff5a3f96d1ecec5053a,ma_choice_v4_movies_pilot1,614f7ff5a3f96d1ecec5053a,59,0,-1,-1,"Action,Romantic,Drama,Science Fiction,Art,Violent,Fantasy World,Suspense,Funny","35%,51%,72%,50%,18%,52%,39%,54%,5%","3%,0%,17%,28%,85%,4%,60%,1%,35%",0,,14962,2022-06-23 15:37:30,146982
60ddc7abdf6661b9c294691f,ma_choice_v4_movies_pilot1,60ddc7abdf6661b9c294691f,89,0,-1,-1,"Violent,Romantic,Science Fiction,Funny,Art,Fantasy World,Action,Suspense,Drama","3%,88%,34%,3%,2%,44%,5%,26%,9%","49%,5%,82%,35%,35%,75%,34%,73%,73%",1,,9145,2022-06-23 15:37:34,146985
60ddc7abdf6661b9c294691f,ma_choice_v4_movies_pilot1,60ddc7abdf6661b9c294691f,90,0,-1,-1,"Fantasy World,Suspense,Science Fiction,Violent,Romantic,Funny,Action,Art,Drama","41%,2%,18%,26%,47%,0%,5%,80%,20%","62%,69%,58%,4%,25%,52%,75%,27%,86%",1,,8199,2022-06-23 15:37:43,146987
6111d2f6655febefcbacc17c,ma_choice_v4_movies_pilot1,6111d2f6655febefcbacc17c,27,0,-1,-1,"Drama,Fantasy World,Violent,Suspense,Action,Romantic,Funny,Art,Science Fiction","20%,73%,20%,29%,4%,55%,8%,34%,26%","50%,50%,78%,78%,56%,12%,40%,8%,83%",1,,14496,2022-06-23 15:37:44,146988
614f7ff5a3f96d1ecec5053a,ma_choice_v4_movies_pilot1,614f7ff5a3f96d1ecec5053a,60,0,-1,-1,"Suspense,Romantic,Funny,Drama,Action,Science Fiction,Art,Violent,Fantasy World","81%,50%,1%,71%,3%,12%,2%,2%,38%","12%,26%,24%,18%,37%,38%,44%,22%,87%",0,,15043,2022-06-23 15:37:47,146991
60ddc7abdf6661b9c294691f,ma_choice_v4_movies_pilot1,60ddc7abdf6661b9c294691f,91,0,-1,-1,"Romantic,Fantasy World,Violent,Suspense,Drama,Art,Funny,Science Fiction,Action","52%,58%,13%,33%,28%,22%,66%,46%,23%","2%,29%,34%,0%,56%,94%,1%,1%,2%",0,,8530,2022-06-23 15:37:53,146993
6111d2f6655febefcbacc17c,ma_choice_v4_movies_pilot1,6111d2f6655febefcbacc17c,28,0,-1,-1,"Science Fiction,Fantasy World,Romantic,Art,Violent,Funny,Suspense,Drama,Action","32%,37%,42%,20%,1%,82%,8%,3%,90%","0%,12%,17%,81%,62%,2%,65%,91%,11%",0,,8690,2022-06-23 15:37:54,146994
614f7ff5a3f96d1ecec5053a,ma_choice_v4_movies_pilot1,614f7ff5a3f96d1ecec5053a,61,0,-1,-1,"Violent,Funny,Romantic,Drama,Action,Science Fiction,Suspense,Art,Fantasy World","12%,52%,25%,15%,92%,7%,55%,10%,65%","75%,1%,2%,55%,5%,32%,21%,62%,40%",0,,9496,2022-06-23 15:37:57,146995
60ddc7abdf6661b9c294691f,ma_choice_v4_movies_pilot1,60ddc7abdf6661b9c294691f,92,0,-1,-1,"Action,Romantic,Art,Science Fiction,Fantasy World,Violent,Funny,Suspense,Drama","5%,11%,27%,14%,37%,66%,14%,48%,79%","37%,38%,6%,45%,58%,5%,53%,12%,15%",1,,8332,2022-06-23 15:38:02,146998
6111d2f6655febefcbacc17c,ma_choice_v4_movies_pilot1,6111d2f6655febefcbacc17c,29,0,-1,-1,"Romantic,Fantasy World,Art,Action,Suspense,Funny,Drama,Violent,Science Fiction","7%,35%,3%,35%,73%,2%,45%,1%,26%","68%,64%,24%,74%,24%,69%,17%,31%,67%",1,,12474,2022-06-23 15:38:07,146999
614f7ff5a3f96d1ecec5053a,ma_choice_v4_movies_pilot1,614f7ff5a3f96d1ecec5053a,62,0,-1,-1,"Funny,Violent,Suspense,Romantic,Fantasy World,Action,Science Fiction,Art,Drama","4%,39%,26%,16%,47%,24%,49%,81%,20%","57%,1%,3%,88%,17%,2%,23%,20%,65%",1,,10639,2022-06-23 15:38:09,147002
60ddc7abdf6661b9c294691f,ma_choice_v4_movies_pilot1,60ddc7abdf6661b9c294691f,93,0,-1,-1,"Science Fiction,Funny,Violent,Suspense,Art,Drama,Action,Romantic,Fantasy World","34%,2%,73%,2%,27%,77%,6%,48%,59%","7%,30%,9%,48%,79%,47%,30%,3%,39%",0,,8270,2022-06-23 15:38:12,147004
614f7ff5a3f96d1ecec5053a,ma_choice_v4_movies_pilot1,614f7ff5a3f96d1ecec5053a,63,0,-1,-1,"Science Fiction,Art,Fantasy World,Funny,Action,Suspense,Drama,Violent,Romantic","48%,71%,66%,6%,30%,39%,32%,1%,92%","22%,13%,38%,66%,6%,7%,10%,23%,10%",0,,8341,2022-06-23 15:38:18,147005
60ddc7abdf6661b9c294691f,ma_choice_v4_movies_pilot1,60ddc7abdf6661b9c294691f,94,0,-1,-1,"Violent,Suspense,Science Fiction,Art,Funny,Action,Romantic,Fantasy World,Drama","1%,13%,25%,44%,5%,60%,24%,45%,9%","29%,55%,0%,71%,60%,18%,76%,24%,85%",0,,8379,2022-06-23 15:38:21,147007
6111d2f6655febefcbacc17c,ma_choice_v4_movies_pilot1,6111d2f6655febefcbacc17c,30,0,-1,-1,"Violent,Action,Art,Funny,Suspense,Fantasy World,Drama,Romantic,Science Fiction","1%,5%,17%,26%,61%,23%,52%,0%,71%","97%,40%,42%,3%,9%,67%,31%,20%,0%",0,,15253,2022-06-23 15:38:23,147010
614f7ff5a3f96d1ecec5053a,ma_choice_v4_movies_pilot1,614f7ff5a3f96d1ecec5053a,64,0,-1,-1,"Romantic,Funny,Suspense,Violent,Fantasy World,Art,Action,Drama,Science Fiction","1%,1%,32%,71%,39%,38%,15%,70%,17%","37%,52%,10%,15%,66%,4%,78%,29%,45%",1,,8394,2022-06-23 15:38:27,147011
60ddc7abdf6661b9c294691f,ma_choice_v4_movies_pilot1,60ddc7abdf6661b9c294691f,95,0,-1,-1,"Drama,Funny,Action,Violent,Science Fiction,Suspense,Romantic,Art,Fantasy World","44%,2%,12%,76%,100%,77%,22%,33%,24%","7%,63%,39%,16%,36%,30%,72%,9%,45%",0,,8434,2022-06-23 15:38:31,147013
6111d2f6655febefcbacc17c,ma_choice_v4_movies_pilot1,6111d2f6655febefcbacc17c,31,0,-1,-1,"Art,Romantic,Action,Drama,Violent,Funny,Suspense,Fantasy World,Science Fiction","27%,11%,5%,79%,66%,14%,48%,37%,14%","6%,38%,37%,15%,5%,53%,12%,58%,45%",1,,13128,2022-06-23 15:38:37,147015
614f7ff5a3f96d1ecec5053a,ma_choice_v4_movies_pilot1,614f7ff5a3f96d1ecec5053a,65,0,-1,-1,"Funny,Suspense,Romantic,Fantasy World,Violent,Drama,Science Fiction,Action,Art","33%,1%,78%,24%,1%,22%,26%,2%,71%","2%,54%,2%,46%,78%,75%,46%,88%,50%",1,,9326,2022-06-23 15:38:38,147016
60ddc7abdf6661b9c294691f,ma_choice_v4_movies_pilot1,60ddc7abdf6661b9c294691f,96,0,-1,-1,"Science Fiction,Drama,Action,Art,Funny,Violent,Suspense,Romantic,Fantasy World","25%,71%,35%,14%,22%,1%,40%,80%,53%","1%,8%,6%,88%,1%,35%,11%,0%,30%",0,,8776,2022-06-23 15:38:40,147019
614f7ff5a3f96d1ecec5053a,ma_choice_v4_movies_pilot1,614f7ff5a3f96d1ecec5053a,66,0,-1,-1,"Action,Art,Drama,Science Fiction,Romantic,Violent,Suspense,Funny,Fantasy World","8%,55%,71%,1%,83%,8%,0%,30%,75%","30%,23%,15%,37%,6%,54%,63%,9%,44%",0,,8027,2022-06-23 15:38:47,147022
5d6a86b8c5508e001bb484bf,ma_choice_v4_movies_pilot1,5d6a86b8c5508e001bb484bf,0,1,-1,-1,"Art,Drama,Fantasy World,Action,Suspense,Funny,Science Fiction,Romantic,Violent","65%,80%,34%,6%,19%,1%,17%,0%,39%","13%,22%,65%,79%,90%,30%,87%,25%,3%",1,,8370,2022-06-23 15:38:49,147024
60ddc7abdf6661b9c294691f,ma_choice_v4_movies_pilot1,60ddc7abdf6661b9c294691f,97,0,-1,-1,"Science Fiction,Art,Action,Suspense,Funny,Romantic,Violent,Fantasy World,Drama","13%,53%,3%,32%,2%,47%,41%,11%,78%","90%,22%,24%,4%,67%,16%,2%,53%,13%",0,,8479,2022-06-23 15:38:50,147025
6111d2f6655febefcbacc17c,ma_choice_v4_movies_pilot1,6111d2f6655febefcbacc17c,32,0,-1,-1,"Fantasy World,Romantic,Funny,Action,Art,Drama,Science Fiction,Violent,Suspense","41%,47%,0%,5%,80%,20%,18%,26%,2%","62%,25%,52%,75%,27%,86%,58%,4%,69%",1,,11693,2022-06-23 15:38:50,147026
614f7ff5a3f96d1ecec5053a,ma_choice_v4_movies_pilot1,614f7ff5a3f96d1ecec5053a,67,0,-1,-1,"Romantic,Suspense,Drama,Action,Funny,Art,Fantasy World,Science Fiction,Violent","0%,40%,65%,2%,0%,89%,15%,5%,40%","89%,8%,9%,23%,66%,18%,46%,29%,4%",1,,10179,2022-06-23 15:38:58,147031
5d6a86b8c5508e001bb484bf,ma_choice_v4_movies_pilot1,5d6a86b8c5508e001bb484bf,1,1,-1,-1,"Suspense,Action,Romantic,Science Fiction,Drama,Fantasy World,Art,Violent,Funny","3%,3%,15%,18%,51%,26%,99%,1%,5%","31%,24%,41%,48%,14%,46%,10%,37%,65%",1,,7934,2022-06-23 15:38:58,147032
6111d2f6655febefcbacc17c,ma_choice_v4_movies_pilot1,6111d2f6655febefcbacc17c,33,0,-1,-1,"Drama,Funny,Action,Science Fiction,Violent,Romantic,Suspense,Fantasy World,Art","65%,0%,2%,5%,40%,0%,40%,15%,89%","9%,66%,23%,29%,4%,89%,8%,46%,18%",1,,8049,2022-06-23 15:38:59,147033
60ddc7abdf6661b9c294691f,ma_choice_v4_movies_pilot1,60ddc7abdf6661b9c294691f,98,0,-1,-1,"Science Fiction,Violent,Art,Drama,Suspense,Romantic,Fantasy World,Funny,Action","28%,18%,94%,56%,12%,30%,66%,4%,11%","77%,81%,26%,76%,76%,50%,37%,66%,92%",1,,9468,2022-06-23 15:39:00,147034
5d6a86b8c5508e001bb484bf,ma_choice_v4_movies_pilot1,5d6a86b8c5508e001bb484bf,2,1,-1,-1,"Science Fiction,Action,Art,Romantic,Violent,Fantasy World,Suspense,Funny,Drama","47%,18%,14%,39%,13%,61%,18%,56%,11%","24%,66%,79%,3%,68%,34%,62%,16%,73%",0,,8262,2022-06-23 15:39:08,147036
60ddc7abdf6661b9c294691f,ma_choice_v4_movies_pilot1,60ddc7abdf6661b9c294691f,99,0,-1,-1,"Romantic,Suspense,Art,Drama,Action,Fantasy World,Violent,Funny,Science Fiction","63%,1%,9%,18%,8%,68%,1%,22%,38%","7%,76%,80%,75%,32%,41%,68%,2%,63%",0,,9580,2022-06-23 15:39:11,147039
5d6a86b8c5508e001bb484bf,ma_choice_v4_movies_pilot1,5d6a86b8c5508e001bb484bf,3,1,-1,-1,"Science Fiction,Art,Suspense,Action,Fantasy World,Violent,Drama,Romantic,Funny","22%,50%,10%,15%,75%,28%,78%,78%,16%","47%,24%,69%,36%,40%,74%,15%,18%,61%",1,,7870,2022-06-23 15:39:16,147040
614f7ff5a3f96d1ecec5053a,ma_choice_v4_movies_pilot1,614f7ff5a3f96d1ecec5053a,68,0,-1,-1,"Science Fiction,Funny,Violent,Suspense,Romantic,Action,Art,Fantasy World,Drama","38%,13%,73%,79%,56%,59%,41%,49%,72%","3%,81%,8%,6%,19%,7%,7%,15%,10%",1,,18703,2022-06-23 15:39:18,147041
6111d2f6655febefcbacc17c,ma_choice_v4_movies_pilot1,6111d2f6655febefcbacc17c,34,0,-1,-1,"Action,Violent,Drama,Suspense,Funny,Romantic,Art,Science Fiction,Fantasy World","30%,9%,47%,48%,30%,3%,79%,7%,39%","6%,73%,77%,2%,2%,48%,27%,34%,59%",0,,19284,2022-06-23 15:39:19,147045
5d6a86b8c5508e001bb484bf,ma_choice_v4_movies_pilot1,5d6a86b8c5508e001bb484bf,4,1,-1,-1,"Art,Romantic,Suspense,Action,Fantasy World,Science Fiction,Drama,Funny,Violent","4%,1%,1%,3%,41%,43%,5%,52%,32%","38%,52%,87%,33%,19%,14%,47%,12%,2%",1,,7632,2022-06-23 15:39:25,147046
62a77a01b6a18ad2e49267c1,ma_choice_v4_movies_pilot1,62a77a01b6a18ad2e49267c1,0,1,-1,-1,"Science Fiction,Fantasy World,Action,Romantic,Suspense,Funny,Art,Drama,Violent","15%,31%,20%,100%,2%,3%,11%,21%,1%","47%,54%,83%,21%,78%,47%,69%,61%,78%",0,,9705,2022-06-23 15:39:26,147047
614f7ff5a3f96d1ecec5053a,ma_choice_v4_movies_pilot1,614f7ff5a3f96d1ecec5053a,69,0,-1,-1,"Fantasy World,Art,Violent,Suspense,Science Fiction,Action,Funny,Drama,Romantic","43%,33%,5%,68%,101%,78%,47%,28%,88%","66%,105%,27%,20%,32%,4%,8%,51%,23%",0,,8335,2022-06-23 15:39:27,147048
6111d2f6655febefcbacc17c,ma_choice_v4_movies_pilot1,6111d2f6655febefcbacc17c,35,0,-1,-1,"Science Fiction,Art,Suspense,Drama,Action,Funny,Violent,Romantic,Fantasy World","27%,-1%,6%,72%,19%,1%,1%,26%,28%","100%,46%,31%,51%,75%,24%,22%,0%,54%",1,,9725,2022-06-23 15:39:30,147051
5d6a86b8c5508e001bb484bf,ma_choice_v4_movies_pilot1,5d6a86b8c5508e001bb484bf,5,1,-1,-1,"Action,Romantic,Violent,Drama,Funny,Art,Suspense,Fantasy World,Science Fiction","83%,21%,78%,61%,47%,69%,78%,54%,47%","20%,100%,1%,21%,3%,11%,2%,31%,15%",0,,7474,2022-06-23 15:39:34,147052
62a77a01b6a18ad2e49267c1,ma_choice_v4_movies_pilot1,62a77a01b6a18ad2e49267c1,1,1,-1,-1,"Violent,Suspense,Science Fiction,Art,Romantic,Fantasy World,Drama,Action,Funny","57%,80%,37%,42%,41%,23%,78%,69%,35%","13%,0%,8%,66%,0%,57%,4%,11%,9%",1,,8687,2022-06-23 15:39:35,147053
614f7ff5a3f96d1ecec5053a,ma_choice_v4_movies_pilot1,614f7ff5a3f96d1ecec5053a,70,0,-1,-1,"Funny,Suspense,Drama,Art,Action,Science Fiction,Violent,Fantasy World,Romantic","9%,19%,64%,29%,42%,81%,11%,50%,23%","50%,77%,20%,7%,7%,22%,60%,26%,0%",0,,10246,2022-06-23 15:39:38,147057
5d6a86b8c5508e001bb484bf,ma_choice_v4_movies_pilot1,5d6a86b8c5508e001bb484bf,6,1,-1,-1,"Violent,Romantic,Funny,Science Fiction,Suspense,Fantasy World,Action,Drama,Art","5%,75%,1%,30%,54%,39%,34%,61%,58%","27%,21%,64%,51%,20%,66%,56%,39%,23%",1,,7945,2022-06-23 15:39:43,147058
6111d2f6655febefcbacc17c,ma_choice_v4_movies_pilot1,6111d2f6655febefcbacc17c,36,0,-1,-1,"Violent,Suspense,Art,Fantasy World,Romantic,Science Fiction,Funny,Action,Drama","33%,48%,54%,32%,3%,22%,2%,8%,63%","1%,11%,15%,53%,37%,88%,37%,56%,4%",1,,12273,2022-06-23 15:39:43,147059
62a77a01b6a18ad2e49267c1,ma_choice_v4_movies_pilot1,62a77a01b6a18ad2e49267c1,2,1,-1,-1,"Art,Violent,Suspense,Drama,Funny,Romantic,Fantasy World,Action,Science Fiction","50%,28%,10%,78%,16%,78%,75%,15%,22%","24%,74%,69%,15%,61%,18%,40%,36%,47%",0,,8630,2022-06-23 15:39:45,147060
614f7ff5a3f96d1ecec5053a,ma_choice_v4_movies_pilot1,614f7ff5a3f96d1ecec5053a,71,0,-1,-1,"Action,Fantasy World,Romantic,Drama,Art,Science Fiction,Funny,Suspense,Violent","87%,51%,39%,15%,22%,45%,6%,79%,54%","3%,28%,11%,35%,90%,22%,29%,3%,21%",0,,10693,2022-06-23 15:39:50,147064
5d6a86b8c5508e001bb484bf,ma_choice_v4_movies_pilot1,5d6a86b8c5508e001bb484bf,7,1,-1,-1,"Art,Funny,Suspense,Action,Fantasy World,Violent,Romantic,Drama,Science Fiction","42%,35%,80%,69%,23%,57%,41%,78%,37%","66%,9%,0%,11%,57%,13%,0%,4%,8%",0,,7484,2022-06-23 15:39:51,147065
62a77a01b6a18ad2e49267c1,ma_choice_v4_movies_pilot1,62a77a01b6a18ad2e49267c1,3,1,-1,-1,"Romantic,Violent,Fantasy World,Action,Art,Drama,Suspense,Funny,Science Fiction","25%,3%,65%,79%,13%,22%,90%,30%,87%","0%,39%,34%,6%,65%,80%,19%,1%,17%",1,,8234,2022-06-23 15:39:54,147067
6111d2f6655febefcbacc17c,ma_choice_v4_movies_pilot1,6111d2f6655febefcbacc17c,37,0,-1,-1,"Funny,Art,Romantic,Science Fiction,Action,Fantasy World,Suspense,Violent,Drama","4%,23%,37%,36%,73%,66%,89%,49%,75%","24%,43%,5%,15%,3%,35%,3%,1%,30%",0,,11333,2022-06-23 15:39:56,147069
614f7ff5a3f96d1ecec5053a,ma_choice_v4_movies_pilot1,614f7ff5a3f96d1ecec5053a,72,0,-1,-1,"Science Fiction,Fantasy World,Drama,Violent,Funny,Art,Romantic,Suspense,Action","4%,34%,42%,74%,1%,79%,3%,6%,8%","46%,79%,12%,15%,23%,19%,24%,78%,71%",1,,8158,2022-06-23 15:39:59,147070
5d6a86b8c5508e001bb484bf,ma_choice_v4_movies_pilot1,5d6a86b8c5508e001bb484bf,8,1,-1,-1,"Science Fiction,Action,Funny,Fantasy World,Suspense,Drama,Romantic,Violent,Art","22%,3%,1%,34%,48%,84%,9%,26%,74%","51%,27%,80%,55%,12%,12%,35%,3%,8%",0,,8059,2022-06-23 15:40:00,147071
62a77a01b6a18ad2e49267c1,ma_choice_v4_movies_pilot1,62a77a01b6a18ad2e49267c1,4,1,-1,-1,"Drama,Romantic,Fantasy World,Action,Funny,Violent,Science Fiction,Suspense,Art","65%,14%,25%,3%,0%,3%,20%,2%,70%","21%,37%,46%,34%,73%,30%,45%,24%,36%",1,,9020,2022-06-23 15:40:04,147074
6111d2f6655febefcbacc17c,ma_choice_v4_movies_pilot1,6111d2f6655febefcbacc17c,38,0,-1,-1,"Drama,Fantasy World,Action,Violent,Suspense,Romantic,Funny,Science Fiction,Art","72%,35%,5%,69%,53%,13%,0%,0%,91%","22%,67%,35%,1%,5%,36%,20%,36%,20%",1,,10730,2022-06-23 15:40:08,147076
5d6a86b8c5508e001bb484bf,ma_choice_v4_movies_pilot1,5d6a86b8c5508e001bb484bf,9,1,-1,-1,"Violent,Romantic,Fantasy World,Suspense,Funny,Art,Action,Drama,Science Fiction","3%,14%,25%,2%,0%,70%,3%,65%,20%","30%,37%,46%,24%,73%,36%,34%,21%,45%",1,,7655,2022-06-23 15:40:09,147077
62a77a01b6a18ad2e49267c1,ma_choice_v4_movies_pilot1,62a77a01b6a18ad2e49267c1,5,1,-1,-1,"Science Fiction,Fantasy World,Action,Art,Drama,Romantic,Violent,Funny,Suspense","14%,19%,33%,38%,47%,52%,2%,12%,87%","43%,41%,3%,4%,5%,1%,32%,52%,1%",0,,8291,2022-06-23 15:40:14,147080
614f7ff5a3f96d1ecec5053a,ma_choice_v4_movies_pilot1,614f7ff5a3f96d1ecec5053a,73,0,-1,-1,"Fantasy World,Funny,Action,Art,Drama,Suspense,Violent,Romantic,Science Fiction","24%,7%,84%,84%,23%,73%,16%,70%,41%","60%,33%,57%,15%,68%,49%,38%,32%,13%",1,,15370,2022-06-23 15:40:16,147081
6111d2f6655febefcbacc17c,ma_choice_v4_movies_pilot1,6111d2f6655febefcbacc17c,39,0,-1,-1,"Fantasy World,Violent,Science Fiction,Art,Funny,Romantic,Suspense,Action,Drama","42%,4%,72%,10%,75%,39%,11%,51%,65%","63%,75%,40%,95%,1%,7%,35%,9%,5%",0,,9138,2022-06-23 15:40:18,147082
62a77a01b6a18ad2e49267c1,ma_choice_v4_movies_pilot1,62a77a01b6a18ad2e49267c1,6,1,-1,-1,"Romantic,Funny,Art,Science Fiction,Violent,Suspense,Drama,Action,Fantasy World","21%,64%,23%,51%,27%,20%,39%,56%,66%","75%,1%,58%,30%,5%,54%,61%,34%,39%",1,,7899,2022-06-23 15:40:22,147084
614f7ff5a3f96d1ecec5053a,ma_choice_v4_movies_pilot1,614f7ff5a3f96d1ecec5053a,74,0,-1,-1,"Art,Fantasy World,Suspense,Violent,Action,Drama,Funny,Romantic,Science Fiction","22%,58%,33%,13%,23%,28%,66%,52%,46%","94%,29%,0%,34%,2%,56%,1%,2%,1%",0,,7784,2022-06-23 15:40:24,147087
6111d2f6655febefcbacc17c,ma_choice_v4_movies_pilot1,6111d2f6655febefcbacc17c,40,0,-1,-1,"Drama,Violent,Science Fiction,Fantasy World,Romantic,Action,Funny,Suspense,Art","79%,26%,30%,31%,47%,31%,1%,84%,2%","22%,1%,4%,68%,73%,7%,33%,5%,33%",1,,9494,2022-06-23 15:40:28,147089
62a77a01b6a18ad2e49267c1,ma_choice_v4_movies_pilot1,62a77a01b6a18ad2e49267c1,7,1,-1,-1,"Violent,Suspense,Fantasy World,Art,Funny,Romantic,Drama,Science Fiction,Action","68%,62%,34%,79%,16%,3%,73%,24%,66%","13%,18%,61%,14%,56%,39%,11%,47%,18%",0,,11411,2022-06-23 15:40:35,147092
614f7ff5a3f96d1ecec5053a,ma_choice_v4_movies_pilot1,614f7ff5a3f96d1ecec5053a,75,0,-1,-1,"Art,Action,Drama,Fantasy World,Suspense,Romantic,Science Fiction,Funny,Violent","14%,91%,23%,46%,35%,72%,8%,63%,60%","46%,2%,77%,69%,1%,14%,44%,2%,3%",0,,12343,2022-06-23 15:40:38,147093
6111d2f6655febefcbacc17c,ma_choice_v4_movies_pilot1,6111d2f6655febefcbacc17c,41,0,-1,-1,"Drama,Art,Science Fiction,Fantasy World,Violent,Suspense,Action,Romantic,Funny","16%,12%,2%,16%,23%,11%,5%,37%,83%","82%,38%,30%,59%,88%,69%,26%,5%,5%",0,,12421,2022-06-23 15:40:42,147095
5d6a86b8c5508e001bb484bf,ma_choice_v4_movies_pilot1,5d6a86b8c5508e001bb484bf,0,0,-1,-1,"Art,Drama,Fantasy World,Science Fiction,Violent,Action,Romantic,Suspense,Funny","64%,69%,32%,16%,3%,14%,1%,81%,1%","11%,5%,53%,47%,32%,48%,22%,1%,32%",1,,11795,2022-06-23 15:40:42,147096
62a77a01b6a18ad2e49267c1,ma_choice_v4_movies_pilot1,62a77a01b6a18ad2e49267c1,8,1,-1,-1,"Art,Violent,Science Fiction,Suspense,Fantasy World,Drama,Romantic,Funny,Action","8%,3%,51%,12%,55%,12%,35%,80%,27%","74%,26%,22%,48%,34%,84%,9%,1%,3%",1,,7623,2022-06-23 15:40:44,147097
614f7ff5a3f96d1ecec5053a,ma_choice_v4_movies_pilot1,614f7ff5a3f96d1ecec5053a,76,0,-1,-1,"Action,Suspense,Art,Violent,Funny,Drama,Science Fiction,Romantic,Fantasy World","10%,4%,31%,13%,69%,7%,30%,83%,46%","55%,57%,11%,83%,1%,79%,60%,5%,69%",1,,12399,2022-06-23 15:40:51,147101
5d6a86b8c5508e001bb484bf,ma_choice_v4_movies_pilot1,5d6a86b8c5508e001bb484bf,1,0,-1,-1,"Action,Violent,Drama,Funny,Suspense,Romantic,Science Fiction,Fantasy World,Art","32%,1%,2%,37%,1%,3%,35%,41%,54%","4%,77%,54%,6%,23%,78%,0%,18%,87%",1,,8057,2022-06-23 15:40:51,147102
62a77a01b6a18ad2e49267c1,ma_choice_v4_movies_pilot1,62a77a01b6a18ad2e49267c1,9,1,-1,-1,"Funny,Suspense,Science Fiction,Art,Action,Violent,Fantasy World,Drama,Romantic","5%,3%,18%,99%,3%,1%,26%,51%,15%","65%,31%,48%,10%,24%,37%,46%,14%,41%",0,,7562,2022-06-23 15:40:52,147103
6111d2f6655febefcbacc17c,ma_choice_v4_movies_pilot1,6111d2f6655febefcbacc17c,42,0,-1,-1,"Drama,Fantasy World,Action,Art,Funny,Violent,Suspense,Science Fiction,Romantic","23%,13%,7%,51%,1%,37%,75%,0%,0%","64%,43%,34%,-1%,21%,4%,5%,28%,88%",1,,12513,2022-06-23 15:40:55,147105
614f7ff5a3f96d1ecec5053a,ma_choice_v4_movies_pilot1,614f7ff5a3f96d1ecec5053a,77,0,-1,-1,"Fantasy World,Action,Art,Drama,Violent,Science Fiction,Funny,Romantic,Suspense","39%,44%,7%,58%,30%,36%,28%,77%,54%","93%,5%,79%,10%,2%,11%,8%,9%,0%",0,,8697,2022-06-23 15:41:01,147106
5d6a86b8c5508e001bb484bf,ma_choice_v4_movies_pilot1,5d6a86b8c5508e001bb484bf,2,0,-1,-1,"Romantic,Science Fiction,Fantasy World,Drama,Suspense,Funny,Violent,Action,Art","16%,49%,47%,20%,26%,4%,39%,24%,81%","88%,23%,17%,65%,3%,57%,1%,2%,20%",1,,10345,2022-06-23 15:41:03,147108
6111d2f6655febefcbacc17c,ma_choice_v4_movies_pilot1,6111d2f6655febefcbacc17c,43,0,-1,-1,"Science Fiction,Violent,Suspense,Action,Fantasy World,Drama,Funny,Romantic,Art","47%,20%,26%,25%,37%,67%,63%,53%,30%","27%,61%,1%,49%,63%,6%,1%,3%,0%",0,,10247,2022-06-23 15:41:06,147111
5d6a86b8c5508e001bb484bf,ma_choice_v4_movies_pilot1,5d6a86b8c5508e001bb484bf,3,0,-1,-1,"Funny,Science Fiction,Art,Fantasy World,Drama,Violent,Suspense,Romantic,Action","1%,24%,74%,41%,26%,15%,27%,22%,32%","70%,79%,18%,84%,68%,70%,0%,2%,3%",1,,7550,2022-06-23 15:41:11,147112
614f7ff5a3f96d1ecec5053a,ma_choice_v4_movies_pilot1,614f7ff5a3f96d1ecec5053a,78,0,-1,-1,"Funny,Action,Art,Suspense,Drama,Science Fiction,Fantasy World,Romantic,Violent","4%,22%,57%,57%,13%,58%,79%,13%,79%","48%,74%,36%,21%,62%,29%,25%,43%,1%",1,,13907,2022-06-23 15:41:16,147115
6111d2f6655febefcbacc17c,ma_choice_v4_movies_pilot1,6111d2f6655febefcbacc17c,44,0,-1,-1,"Romantic,Suspense,Science Fiction,Violent,Fantasy World,Art,Drama,Action,Funny","25%,64%,52%,47%,32%,80%,47%,90%,72%","2%,1%,25%,1%,54%,4%,4%,5%,29%",0,,8255,2022-06-23 15:41:16,147116
5d6a86b8c5508e001bb484bf,ma_choice_v4_movies_pilot1,5d6a86b8c5508e001bb484bf,4,0,-1,-1,"Drama,Science Fiction,Art,Violent,Suspense,Funny,Fantasy World,Romantic,Action","31%,64%,36%,66%,46%,28%,50%,10%,77%","71%,19%,72%,1%,17%,4%,29%,59%,7%",0,,7558,2022-06-23 15:41:20,147118
62a77a01b6a18ad2e49267c1,ma_choice_v4_movies_pilot1,62a77a01b6a18ad2e49267c1,0,0,-1,-1,"Science Fiction,Suspense,Art,Violent,Romantic,Action,Drama,Funny,Fantasy World","50%,54%,18%,52%,51%,35%,72%,5%,39%","28%,1%,85%,4%,0%,3%,17%,35%,60%",1,,8236,2022-06-23 15:41:22,147119
614f7ff5a3f96d1ecec5053a,ma_choice_v4_movies_pilot1,614f7ff5a3f96d1ecec5053a,79,0,-1,-1,"Science Fiction,Action,Art,Funny,Drama,Suspense,Violent,Fantasy World,Romantic","71%,5%,17%,26%,52%,61%,1%,23%,0%","0%,40%,42%,3%,31%,9%,97%,67%,20%",0,,9141,2022-06-23 15:41:26,147121
6111d2f6655febefcbacc17c,ma_choice_v4_movies_pilot1,6111d2f6655febefcbacc17c,45,0,-1,-1,"Action,Fantasy World,Suspense,Funny,Science Fiction,Romantic,Drama,Art,Violent","3%,38%,81%,1%,12%,50%,71%,2%,2%","37%,87%,12%,24%,38%,26%,18%,44%,22%",1,,11563,2022-06-23 15:41:28,147122
5d6a86b8c5508e001bb484bf,ma_choice_v4_movies_pilot1,5d6a86b8c5508e001bb484bf,5,0,-1,-1,"Art,Action,Violent,Drama,Romantic,Suspense,Science Fiction,Fantasy World,Funny","42%,40%,97%,31%,20%,9%,0%,67%,3%","17%,5%,1%,52%,0%,61%,71%,23%,26%",0,,7578,2022-06-23 15:41:28,147123
62a77a01b6a18ad2e49267c1,ma_choice_v4_movies_pilot1,62a77a01b6a18ad2e49267c1,1,0,-1,-1,"Art,Fantasy World,Action,Violent,Science Fiction,Suspense,Romantic,Funny,Drama","20%,17%,2%,1%,23%,3%,88%,57%,65%","81%,47%,24%,39%,49%,26%,16%,4%,20%",1,,7977,2022-06-23 15:41:31,147124
614f7ff5a3f96d1ecec5053a,ma_choice_v4_movies_pilot1,614f7ff5a3f96d1ecec5053a,80,0,-1,-1,"Science Fiction,Drama,Fantasy World,Funny,Action,Romantic,Suspense,Violent,Art","32%,70%,45%,53%,15%,21%,25%,33%,107%","103%,6%,75%,12%,41%,0%,4%,5%,12%",1,,8313,2022-06-23 15:41:35,147127
5d6a86b8c5508e001bb484bf,ma_choice_v4_movies_pilot1,5d6a86b8c5508e001bb484bf,6,0,-1,-1,"Art,Funny,Science Fiction,Violent,Suspense,Fantasy World,Romantic,Action,Drama","79%,8%,11%,2%,0%,93%,9%,5%,10%","7%,28%,36%,30%,54%,39%,77%,44%,58%",1,,7989,2022-06-23 15:41:37,147129
62a77a01b6a18ad2e49267c1,ma_choice_v4_movies_pilot1,62a77a01b6a18ad2e49267c1,2,0,-1,-1,"Romantic,Science Fiction,Art,Suspense,Funny,Drama,Fantasy World,Violent,Action","2%,7%,3%,7%,72%,12%,35%,1%,27%","23%,27%,69%,28%,6%,76%,56%,53%,3%",1,,9020,2022-06-23 15:41:41,147132
5d6a86b8c5508e001bb484bf,ma_choice_v4_movies_pilot1,5d6a86b8c5508e001bb484bf,7,0,-1,-1,"Romantic,Funny,Art,Violent,Science Fiction,Suspense,Action,Drama,Fantasy World","88%,3%,2%,3%,34%,26%,5%,9%,44%","5%,35%,35%,49%,82%,73%,34%,73%,75%",1,,7570,2022-06-23 15:41:46,147134
6111d2f6655febefcbacc17c,ma_choice_v4_movies_pilot1,6111d2f6655febefcbacc17c,46,0,-1,-1,"Science Fiction,Suspense,Fantasy World,Art,Funny,Action,Violent,Drama,Romantic","99%,7%,41%,18%,7%,64%,29%,12%,2%","9%,37%,17%,46%,44%,3%,1%,91%,85%",1,,18340,2022-06-23 15:41:48,147135
62a77a01b6a18ad2e49267c1,ma_choice_v4_movies_pilot1,62a77a01b6a18ad2e49267c1,3,0,-1,-1,"Drama,Fantasy World,Suspense,Romantic,Science Fiction,Art,Action,Violent,Funny","86%,27%,7%,83%,5%,57%,6%,10%,0%","30%,47%,73%,13%,35%,21%,78%,62%,35%",0,,7548,2022-06-23 15:41:49,147136
5d6a86b8c5508e001bb484bf,ma_choice_v4_movies_pilot1,5d6a86b8c5508e001bb484bf,8,0,-1,-1,"Action,Violent,Science Fiction,Fantasy World,Funny,Art,Drama,Romantic,Suspense","12%,2%,6%,67%,1%,25%,16%,43%,76%","80%,71%,55%,40%,22%,87%,59%,14%,15%",1,,7661,2022-06-23 15:41:55,147140
6111d2f6655febefcbacc17c,ma_choice_v4_movies_pilot1,6111d2f6655febefcbacc17c,47,0,-1,-1,"Violent,Science Fiction,Art,Suspense,Drama,Action,Funny,Romantic,Fantasy World","1%,18%,3%,2%,63%,59%,7%,33%,12%","21%,50%,38%,31%,22%,7%,44%,5%,55%",1,,8777,2022-06-23 15:41:57,147141
62a77a01b6a18ad2e49267c1,ma_choice_v4_movies_pilot1,62a77a01b6a18ad2e49267c1,4,0,-1,-1,"Action,Romantic,Fantasy World,Art,Science Fiction,Suspense,Funny,Violent,Drama","5%,47%,41%,80%,18%,2%,0%,26%,20%","75%,25%,62%,27%,58%,69%,52%,4%,86%",0,,8629,2022-06-23 15:41:59,147142
614f7ff5a3f96d1ecec5053a,ma_choice_v4_movies_pilot1,614f7ff5a3f96d1ecec5053a,81,0,-1,-1,"Action,Violent,Drama,Suspense,Art,Science Fiction,Funny,Fantasy World,Romantic","77%,66%,31%,46%,36%,64%,28%,50%,10%","7%,1%,71%,17%,72%,19%,4%,29%,59%",0,,24006,2022-06-23 15:42:00,147143
5d6a86b8c5508e001bb484bf,ma_choice_v4_movies_pilot1,5d6a86b8c5508e001bb484bf,9,0,-1,-1,"Fantasy World,Funny,Art,Violent,Romantic,Science Fiction,Drama,Action,Suspense","65%,52%,10%,12%,25%,7%,15%,92%,55%","40%,1%,62%,75%,2%,32%,55%,5%,21%",0,,7719,2022-06-23 15:42:03,147145
6111d2f6655febefcbacc17c,ma_choice_v4_movies_pilot1,6111d2f6655febefcbacc17c,48,0,-1,-1,"Romantic,Funny,Drama,Art,Action,Suspense,Science Fiction,Fantasy World,Violent","47%,15%,51%,50%,50%,84%,23%,45%,71%","21%,56%,76%,5%,8%,6%,48%,81%,15%",1,,7966,2022-06-23 15:42:06,147146
62a77a01b6a18ad2e49267c1,ma_choice_v4_movies_pilot1,62a77a01b6a18ad2e49267c1,5,0,-1,-1,"Drama,Art,Action,Fantasy World,Romantic,Science Fiction,Violent,Suspense,Funny","74%,28%,23%,42%,52%,27%,100%,49%,3%","9%,2%,56%,65%,15%,57%,3%,12%,62%",0,,8578,2022-06-23 15:42:08,147147
614f7ff5a3f96d1ecec5053a,ma_choice_v4_movies_pilot1,614f7ff5a3f96d1ecec5053a,82,0,-1,-1,"Drama,Violent,Art,Funny,Action,Fantasy World,Suspense,Science Fiction,Romantic","65%,4%,10%,75%,51%,42%,11%,72%,39%","5%,75%,95%,1%,9%,63%,35%,40%,7%",0,,7717,2022-06-23 15:42:09,147148
5d6a86b8c5508e001bb484bf,ma_choice_v4_movies_pilot1,5d6a86b8c5508e001bb484bf,10,0,-1,-1,"Science Fiction,Funny,Violent,Art,Suspense,Fantasy World,Action,Romantic,Drama","45%,44%,1%,23%,4%,41%,13%,6%,6%","80%,85%,25%,64%,61%,81%,42%,27%,48%",1,,7879,2022-06-23 15:42:12,147152
6111d2f6655febefcbacc17c,ma_choice_v4_movies_pilot1,6111d2f6655febefcbacc17c,49,0,-1,-1,"Fantasy World,Science Fiction,Violent,Romantic,Drama,Art,Funny,Suspense,Action","47%,35%,62%,13%,30%,21%,35%,73%,78%","27%,5%,10%,83%,86%,57%,0%,7%,6%",0,,10770,2022-06-23 15:42:18,147154
62a77a01b6a18ad2e49267c1,ma_choice_v4_movies_pilot1,62a77a01b6a18ad2e49267c1,6,0,-1,-1,"Action,Drama,Violent,Romantic,Art,Funny,Suspense,Science Fiction,Fantasy World","89%,64%,79%,10%,69%,6%,71%,14%,26%","20%,14%,15%,31%,14%,80%,20%,40%,47%",1,,11276,2022-06-23 15:42:21,147155
5d6a86b8c5508e001bb484bf,ma_choice_v4_movies_pilot1,5d6a86b8c5508e001bb484bf,11,0,-1,-1,"Art,Romantic,Science Fiction,Fantasy World,Funny,Violent,Action,Drama,Suspense","12%,0%,103%,75%,12%,5%,41%,6%,4%","107%,21%,32%,45%,53%,33%,15%,70%,25%",0,,8162,2022-06-23 15:42:22,147158
614f7ff5a3f96d1ecec5053a,ma_choice_v4_movies_pilot1,614f7ff5a3f96d1ecec5053a,83,0,-1,-1,"Violent,Fantasy World,Funny,Romantic,Suspense,Art,Science Fiction,Action,Drama","68%,35%,24%,24%,88%,26%,15%,56%,40%","48%,67%,58%,1%,8%,0%,39%,18%,9%",1,,15094,2022-06-23 15:42:25,147160
62a77a01b6a18ad2e49267c1,ma_choice_v4_movies_pilot1,62a77a01b6a18ad2e49267c1,7,0,-1,-1,"Drama,Funny,Romantic,Suspense,Art,Violent,Fantasy World,Action,Science Fiction","76%,66%,50%,76%,26%,81%,37%,92%,77%","56%,4%,30%,12%,94%,18%,66%,11%,28%",1,,7500,2022-06-23 15:42:29,147161
6111d2f6655febefcbacc17c,ma_choice_v4_movies_pilot1,6111d2f6655febefcbacc17c,50,0,-1,-1,"Violent,Drama,Romantic,Action,Suspense,Fantasy World,Science Fiction,Funny,Art","30%,30%,27%,51%,1%,66%,39%,61%,31%","2%,4%,0%,14%,71%,36%,99%,1%,7%",0,,10329,2022-06-23 15:42:30,147162
5d6a86b8c5508e001bb484bf,ma_choice_v4_movies_pilot1,5d6a86b8c5508e001bb484bf,12,0,-1,-1,"Romantic,Fantasy World,Action,Suspense,Art,Science Fiction,Funny,Violent,Drama","10%,26%,89%,71%,69%,14%,6%,79%,64%","31%,47%,20%,20%,14%,40%,80%,15%,14%",0,,7491,2022-06-23 15:42:30,147163
62a77a01b6a18ad2e49267c1,ma_choice_v4_movies_pilot1,62a77a01b6a18ad2e49267c1,8,0,-1,-1,"Violent,Drama,Suspense,Fantasy World,Art,Action,Funny,Romantic,Science Fiction","32%,7%,56%,39%,8%,79%,1%,8%,35%","1%,76%,19%,14%,30%,14%,23%,70%,10%",1,,8632,2022-06-23 15:42:39,147169
5d6a86b8c5508e001bb484bf,ma_choice_v4_movies_pilot1,5d6a86b8c5508e001bb484bf,13,0,-1,-1,"Fantasy World,Funny,Suspense,Action,Violent,Science Fiction,Drama,Art,Romantic","24%,33%,1%,2%,1%,26%,22%,71%,78%","46%,2%,54%,88%,78%,46%,75%,50%,2%",1,,8018,2022-06-23 15:42:39,147170
6127132b64a16c46a232c10e,ma_choice_v4_movies_pilot1,6127132b64a16c46a232c10e,0,1,-1,-1,"Violent,Science Fiction,Art,Fantasy World,Funny,Romantic,Drama,Action,Suspense","5%,30%,58%,39%,1%,75%,61%,34%,54%","27%,51%,23%,66%,64%,21%,39%,56%,20%",1,,8661,2022-06-23 15:42:41,147171
