subject,version,assignmentId,trial,practice,opt1_id,opt2_id,attributes,opt1_values,opt2_values,choice,orig_choice,rt,stamp,id
5a5bff49acc75b00017a6009,ma_choice_v4_observers_pilot3,5a5bff49acc75b00017a6009,0,1,-1,-1,"Year building was built,Amount of traffic,Size of home,Reputation of closest school,Quality of kitchen,Noise pollution,Closeness to parks,Quality of heat/AC system,Size of yard","2013,A Lot,700 square feet,Good,Very Bad,High,10 min away,Very Good,350 square feet","1974,A Little,1200 square feet,Very Bad,Moderate,Very Low,30 min away,Very Bad,100 square feet",0,0,43694,2022-06-20 20:44:50,110389
5a5bff49acc75b00017a6009,ma_choice_v4_observers_pilot3,5a5bff49acc75b00017a6009,1,1,-1,-1,"Amount of traffic,Noise pollution,Closeness to parks,Size of yard,Reputation of closest school,Size of home,Quality of heat/AC system,Quality of kitchen,Year building was built","Very Little,Very Low,20 min away,450 square feet,Moderate,1800 square feet,Moderate,Very Bad,2005","A Lot,Moderate,30 min away,150 square feet,Very Good,1400 square feet,Very Bad,Moderate,1970",0,0,53045,2022-06-20 20:45:44,110390
5a5bff49acc75b00017a6009,ma_choice_v4_observers_pilot3,5a5bff49acc75b00017a6009,2,1,-1,-1,"Size of yard,Year building was built,Amount of traffic,Reputation of closest school,Quality of heat/AC system,Size of home,Quality of kitchen,Closeness to parks,Noise pollution","400 square feet,1973,A Moderate Amount,Good,Very Good,1100 square feet,Good,25 min away,Very Low","50 square feet,2012,Very Little,Bad,Very Bad,1300 square feet,Bad,15 min away,High",1,1,55855,2022-06-20 20:46:40,110391
5a5bff49acc75b00017a6009,ma_choice_v4_observers_pilot3,5a5bff49acc75b00017a6009,3,1,-1,-1,"Year building was built,Amount of traffic,Closeness to parks,Quality of heat/AC system,Size of yard,Reputation of closest school,Size of home,Noise pollution,Quality of kitchen","1974,A Lot,20 min away,Very Bad,450 square feet,Good,1100 square feet,Very Low,Moderate","2020,A Little,30 min away,Good,200 square feet,Very Bad,1500 square feet,Very High,Very Bad",1,1,33614,2022-06-20 20:47:15,110392
5a5bff49acc75b00017a6009,ma_choice_v4_observers_pilot3,5a5bff49acc75b00017a6009,4,1,-1,-1,"Reputation of closest school,Size of yard,Size of home,Amount of traffic,Year building was built,Noise pollution,Closeness to parks,Quality of heat/AC system,Quality of kitchen","Good,600 square feet,1100 square feet,A Lot,1971,Low,30 min away,Good,Good","Very Bad,300 square feet,1400 square feet,Very Little,2008,High,10 min away,Bad,Bad",1,1,36202,2022-06-20 20:47:52,110393
5a5bff49acc75b00017a6009,ma_choice_v4_observers_pilot3,5a5bff49acc75b00017a6009,5,1,-1,-1,"Quality of kitchen,Size of home,Reputation of closest school,Quality of heat/AC system,Size of yard,Year building was built,Amount of traffic,Closeness to parks,Noise pollution","Very Bad,600 square feet,Good,Very Good,500 square feet,1950,A Lot,20 min away,Very High","Good,900 square feet,Very Bad,Moderate,350 square feet,1995,Very Little,10 min away,Very Low",1,1,35827,2022-06-20 20:48:29,110394
5a5bff49acc75b00017a6009,ma_choice_v4_observers_pilot3,5a5bff49acc75b00017a6009,6,1,-1,-1,"Size of yard,Quality of heat/AC system,Size of home,Noise pollution,Amount of traffic,Closeness to parks,Reputation of closest school,Quality of kitchen,Year building was built","250 square feet,Very Good,800 square feet,Low,A Lot,30 min away,Moderate,Bad,1953","100 square feet,Moderate,1700 square feet,High,A Little,20 min away,Very Good,Very Good,1993",1,1,27726,2022-06-20 20:48:58,110395
5a5bff49acc75b00017a6009,ma_choice_v4_observers_pilot3,5a5bff49acc75b00017a6009,7,1,-1,-1,"Quality of heat/AC system,Size of home,Reputation of closest school,Size of yard,Noise pollution,Amount of traffic,Closeness to parks,Quality of kitchen,Year building was built","Bad,1600 square feet,Very Good,300 square feet,Low,Very Little,30 min away,Very Good,2009","Good,1400 square feet,Moderate,150 square feet,Very High,A Lot,15 min away,Moderate,1950",0,0,41367,2022-06-20 20:49:40,110396
5a5bff49acc75b00017a6009,ma_choice_v4_observers_pilot3,5a5bff49acc75b00017a6009,8,1,-1,-1,"Amount of traffic,Reputation of closest school,Size of yard,Noise pollution,Closeness to parks,Year building was built,Size of home,Quality of heat/AC system,Quality of kitchen","A Little,Very Bad,350 square feet,Very High,10 min away,1972,1000 square feet,Very Good,Very Bad","A Lot,Moderate,150 square feet,Low,25 min away,2016,1300 square feet,Moderate,Good",1,1,37094,2022-06-20 20:50:18,110397
5a5bff49acc75b00017a6009,ma_choice_v4_observers_pilot3,5a5bff49acc75b00017a6009,9,1,-1,-1,"Size of yard,Closeness to parks,Year building was built,Amount of traffic,Quality of kitchen,Size of home,Quality of heat/AC system,Noise pollution,Reputation of closest school","300 square feet,15 min away,2006,A Lot,Very Bad,1100 square feet,Moderate,Moderate,Very Bad","500 square feet,25 min away,1955,Very Little,Very Good,1500 square feet,Very Good,Very Low,Moderate",0,0,34349,2022-06-20 20:50:54,110398
60fd6b02340bf3233276eba9,ma_choice_v4_observers_pilot3,60fd6b02340bf3233276eba9,0,1,-1,-1,"Amount of traffic,Quality of kitchen,Size of yard,Noise pollution,Year building was built,Closeness to parks,Size of home,Reputation of closest school,Quality of heat/AC system","A Lot,Moderate,150 square feet,Very High,1950,15 min away,1400 square feet,Moderate,Good","Very Little,Very Good,300 square feet,Low,2009,30 min away,1600 square feet,Very Good,Bad",1,1,27729,2022-06-20 20:51:27,110399
60fd6b02340bf3233276eba9,ma_choice_v4_observers_pilot3,60fd6b02340bf3233276eba9,1,1,-1,-1,"Noise pollution,Amount of traffic,Size of home,Year building was built,Reputation of closest school,Closeness to parks,Quality of kitchen,Size of yard,Quality of heat/AC system","High,Very Little,1400 square feet,2008,Very Bad,10 min away,Bad,300 square feet,Bad","Low,A Lot,1100 square feet,1971,Good,30 min away,Good,600 square feet,Good",1,1,15224,2022-06-20 20:51:43,110400
60fd6b02340bf3233276eba9,ma_choice_v4_observers_pilot3,60fd6b02340bf3233276eba9,2,1,-1,-1,"Amount of traffic,Quality of kitchen,Noise pollution,Quality of heat/AC system,Closeness to parks,Reputation of closest school,Size of yard,Size of home,Year building was built","A Lot,Moderate,Very Low,Very Bad,20 min away,Good,450 square feet,1100 square feet,1974","A Little,Very Bad,Very High,Good,30 min away,Very Bad,200 square feet,1500 square feet,2020",0,0,8524,2022-06-20 20:51:52,110401
60fd6b02340bf3233276eba9,ma_choice_v4_observers_pilot3,60fd6b02340bf3233276eba9,3,1,-1,-1,"Amount of traffic,Closeness to parks,Noise pollution,Quality of kitchen,Size of home,Reputation of closest school,Quality of heat/AC system,Size of yard,Year building was built","A Lot,25 min away,Low,Good,1300 square feet,Moderate,Moderate,150 square feet,2016","A Little,10 min away,Very High,Very Bad,1000 square feet,Very Bad,Very Good,350 square feet,1972",0,0,7725,2022-06-20 20:52:01,110402
60fd6b02340bf3233276eba9,ma_choice_v4_observers_pilot3,60fd6b02340bf3233276eba9,4,1,-1,-1,"Reputation of closest school,Closeness to parks,Quality of kitchen,Size of home,Quality of heat/AC system,Size of yard,Noise pollution,Amount of traffic,Year building was built","Very Bad,10 min away,Good,900 square feet,Moderate,350 square feet,Very Low,Very Little,1995","Good,20 min away,Very Bad,600 square feet,Very Good,500 square feet,Very High,A Lot,1950",0,0,7575,2022-06-20 20:52:10,110403
60fd6b02340bf3233276eba9,ma_choice_v4_observers_pilot3,60fd6b02340bf3233276eba9,5,1,-1,-1,"Year building was built,Quality of kitchen,Size of yard,Quality of heat/AC system,Noise pollution,Closeness to parks,Amount of traffic,Reputation of closest school,Size of home","2012,Bad,50 square feet,Very Bad,High,15 min away,Very Little,Bad,1300 square feet","1973,Good,400 square feet,Very Good,Very Low,25 min away,A Moderate Amount,Good,1100 square feet",1,1,7412,2022-06-20 20:52:18,110404
60fd6b02340bf3233276eba9,ma_choice_v4_observers_pilot3,60fd6b02340bf3233276eba9,6,1,-1,-1,"Size of home,Amount of traffic,Noise pollution,Reputation of closest school,Size of yard,Year building was built,Closeness to parks,Quality of heat/AC system,Quality of kitchen","1800 square feet,Very Little,Very Low,Moderate,450 square feet,2005,20 min away,Moderate,Very Bad","1400 square feet,A Lot,Moderate,Very Good,150 square feet,1970,30 min away,Very Bad,Moderate",0,0,8316,2022-06-20 20:52:27,110405
60fd6b02340bf3233276eba9,ma_choice_v4_observers_pilot3,60fd6b02340bf3233276eba9,7,1,-1,-1,"Closeness to parks,Quality of heat/AC system,Size of home,Size of yard,Amount of traffic,Reputation of closest school,Year building was built,Quality of kitchen,Noise pollution","15 min away,Moderate,1100 square feet,300 square feet,A Lot,Very Bad,2006,Very Bad,Moderate","25 min away,Very Good,1500 square feet,500 square feet,Very Little,Moderate,1955,Very Good,Very Low",1,1,14426,2022-06-20 20:52:43,110406
5a5bff49acc75b00017a6009,ma_choice_v4_observers_pilot3,5a5bff49acc75b00017a6009,0,0,-1,-1,"Size of home,Closeness to parks,Amount of traffic,Noise pollution,Quality of heat/AC system,Quality of kitchen,Year building was built,Size of yard,Reputation of closest school","700 square feet,10 min away,A Moderate Amount,High,Moderate,Moderate,1960,300 square feet,Very Bad","1100 square feet,25 min away,Very Little,Low,Very Good,Very Good,2016,50 square feet,Moderate",1,1,30465,2022-06-20 20:52:48,110407
60fd6b02340bf3233276eba9,ma_choice_v4_observers_pilot3,60fd6b02340bf3233276eba9,8,1,-1,-1,"Size of home,Quality of heat/AC system,Amount of traffic,Size of yard,Noise pollution,Quality of kitchen,Reputation of closest school,Year building was built,Closeness to parks","1200 square feet,Very Bad,A Little,100 square feet,Very Low,Moderate,Very Bad,1974,30 min away","700 square feet,Very Good,A Lot,350 square feet,High,Very Bad,Good,2013,10 min away",0,0,8212,2022-06-20 20:52:52,110408
60fd6b02340bf3233276eba9,ma_choice_v4_observers_pilot3,60fd6b02340bf3233276eba9,9,1,-1,-1,"Closeness to parks,Quality of heat/AC system,Noise pollution,Size of home,Year building was built,Quality of kitchen,Size of yard,Amount of traffic,Reputation of closest school","20 min away,Moderate,High,1700 square feet,1993,Very Good,100 square feet,A Little,Very Good","30 min away,Very Good,Low,800 square feet,1953,Bad,250 square feet,A Lot,Moderate",1,1,7700,2022-06-20 20:53:01,110409
5a5bff49acc75b00017a6009,ma_choice_v4_observers_pilot3,5a5bff49acc75b00017a6009,1,0,-1,-1,"Quality of kitchen,Size of home,Size of yard,Amount of traffic,Year building was built,Quality of heat/AC system,Noise pollution,Closeness to parks,Reputation of closest school","Very Good,1300 square feet,450 square feet,A Moderate Amount,1953,Very Bad,Very Low,25 min away,Good","Moderate,1600 square feet,0 square feet,Very Little,1987,Very Good,Very High,15 min away,Bad",1,1,30031,2022-06-20 20:53:18,110410
5fde9178341f425f8df0ac9d,ma_choice_v4_observers_pilot3,5fde9178341f425f8df0ac9d,0,1,-1,-1,"Closeness to parks,Size of yard,Quality of kitchen,Amount of traffic,Size of home,Reputation of closest school,Quality of heat/AC system,Noise pollution,Year building was built","20 min away,100 square feet,Very Good,A Little,1700 square feet,Very Good,Moderate,High,1993","30 min away,250 square feet,Bad,A Lot,800 square feet,Moderate,Very Good,Low,1953",1,1,21283,2022-06-20 20:53:33,110411
5a5bff49acc75b00017a6009,ma_choice_v4_observers_pilot3,5a5bff49acc75b00017a6009,2,0,-1,-1,"Noise pollution,Year building was built,Quality of heat/AC system,Quality of kitchen,Size of yard,Amount of traffic,Size of home,Closeness to parks,Reputation of closest school","High,2006,Very Good,Bad,450 square feet,Very Little,1400 square feet,25 min away,Very Bad","Low,1959,Bad,Good,150 square feet,A Moderate Amount,1100 square feet,15 min away,Good",0,0,22066,2022-06-20 20:53:41,110412
5fde9178341f425f8df0ac9d,ma_choice_v4_observers_pilot3,5fde9178341f425f8df0ac9d,1,1,-1,-1,"Reputation of closest school,Quality of heat/AC system,Closeness to parks,Noise pollution,Size of home,Size of yard,Amount of traffic,Quality of kitchen,Year building was built","Good,Very Good,25 min away,Very Low,1100 square feet,400 square feet,A Moderate Amount,Good,1973","Bad,Very Bad,15 min away,High,1300 square feet,50 square feet,Very Little,Bad,2012",0,0,11285,2022-06-20 20:53:45,110413
60fd6b02340bf3233276eba9,ma_choice_v4_observers_pilot3,60fd6b02340bf3233276eba9,0,0,-1,-1,"Size of yard,Quality of heat/AC system,Noise pollution,Amount of traffic,Closeness to parks,Year building was built,Reputation of closest school,Quality of kitchen,Size of home","350 square feet,Good,Very High,A Moderate Amount,30 min away,1957,Very Good,Very Good,1300 square feet","0 square feet,Very Bad,Low,Very Little,10 min away,1999,Moderate,Moderate,800 square feet",1,1,19687,2022-06-20 20:53:47,110414
60fd6b02340bf3233276eba9,ma_choice_v4_observers_pilot3,60fd6b02340bf3233276eba9,1,0,-1,-1,"Quality of kitchen,Reputation of closest school,Size of yard,Amount of traffic,Closeness to parks,Size of home,Noise pollution,Quality of heat/AC system,Year building was built","Very Bad,Bad,200 square feet,Very Little,10 min away,1500 square feet,Moderate,Bad,1995","Moderate,Good,50 square feet,A Lot,25 min away,1700 square feet,Very High,Very Good,1958",0,0,10541,2022-06-20 20:53:59,110415
5a5bff49acc75b00017a6009,ma_choice_v4_observers_pilot3,5a5bff49acc75b00017a6009,3,0,-1,-1,"Noise pollution,Amount of traffic,Size of yard,Quality of kitchen,Reputation of closest school,Quality of heat/AC system,Year building was built,Closeness to parks,Size of home","Very High,A Moderate Amount,350 square feet,Very Good,Very Good,Good,1957,30 min away,1300 square feet","Low,Very Little,0 square feet,Moderate,Moderate,Very Bad,1999,10 min away,800 square feet",1,1,17468,2022-06-20 20:54:00,110416
5fde9178341f425f8df0ac9d,ma_choice_v4_observers_pilot3,5fde9178341f425f8df0ac9d,2,1,-1,-1,"Reputation of closest school,Quality of heat/AC system,Quality of kitchen,Year building was built,Amount of traffic,Size of yard,Noise pollution,Size of home,Closeness to parks","Moderate,Good,Moderate,1950,A Lot,150 square feet,Very High,1400 square feet,15 min away","Very Good,Bad,Very Good,2009,Very Little,300 square feet,Low,1600 square feet,30 min away",0,0,16392,2022-06-20 20:54:02,110417
60fd6b02340bf3233276eba9,ma_choice_v4_observers_pilot3,60fd6b02340bf3233276eba9,2,0,-1,-1,"Noise pollution,Closeness to parks,Size of home,Quality of kitchen,Reputation of closest school,Size of yard,Amount of traffic,Quality of heat/AC system,Year building was built","Very High,25 min away,1400 square feet,Very Good,Moderate,450 square feet,Very Little,Bad,2014","Low,10 min away,1800 square feet,Moderate,Very Good,200 square feet,A Lot,Good,1989",1,1,12887,2022-06-20 20:54:13,110418
5fde9178341f425f8df0ac9d,ma_choice_v4_observers_pilot3,5fde9178341f425f8df0ac9d,3,1,-1,-1,"Quality of kitchen,Size of home,Reputation of closest school,Closeness to parks,Quality of heat/AC system,Amount of traffic,Year building was built,Noise pollution,Size of yard","Very Bad,600 square feet,Good,20 min away,Very Good,A Lot,1950,Very High,500 square feet","Good,900 square feet,Very Bad,10 min away,Moderate,Very Little,1995,Very Low,350 square feet",1,1,10296,2022-06-20 20:54:13,110419
5fde9178341f425f8df0ac9d,ma_choice_v4_observers_pilot3,5fde9178341f425f8df0ac9d,4,1,-1,-1,"Size of home,Size of yard,Quality of heat/AC system,Reputation of closest school,Year building was built,Noise pollution,Closeness to parks,Amount of traffic,Quality of kitchen","1800 square feet,450 square feet,Moderate,Moderate,2005,Very Low,20 min away,Very Little,Very Bad","1400 square feet,150 square feet,Very Bad,Very Good,1970,Moderate,30 min away,A Lot,Moderate",0,0,8672,2022-06-20 20:54:23,110420
60fd6b02340bf3233276eba9,ma_choice_v4_observers_pilot3,60fd6b02340bf3233276eba9,3,0,-1,-1,"Year building was built,Reputation of closest school,Quality of heat/AC system,Quality of kitchen,Noise pollution,Size of home,Size of yard,Closeness to parks,Amount of traffic","2006,Very Good,Very Bad,Bad,Very Low,1100 square feet,350 square feet,20 min away,A Little","1968,Moderate,Very Good,Very Good,High,1600 square feet,500 square feet,10 min away,A Lot",0,0,9897,2022-06-20 20:54:24,110421
5fde9178341f425f8df0ac9d,ma_choice_v4_observers_pilot3,5fde9178341f425f8df0ac9d,5,1,-1,-1,"Size of home,Reputation of closest school,Size of yard,Year building was built,Noise pollution,Quality of kitchen,Quality of heat/AC system,Amount of traffic,Closeness to parks","1300 square feet,Moderate,150 square feet,2016,Low,Good,Moderate,A Lot,25 min away","1000 square feet,Very Bad,350 square feet,1972,Very High,Very Bad,Very Good,A Little,10 min away",0,0,8121,2022-06-20 20:54:32,110422
60fd6b02340bf3233276eba9,ma_choice_v4_observers_pilot3,60fd6b02340bf3233276eba9,4,0,-1,-1,"Quality of heat/AC system,Amount of traffic,Reputation of closest school,Year building was built,Size of home,Noise pollution,Size of yard,Quality of kitchen,Closeness to parks","Bad,A Lot,Bad,1953,1300 square feet,High,50 square feet,Moderate,25 min away","Very Good,A Little,Very Good,1984,900 square feet,Low,550 square feet,Very Bad,15 min away",1,1,9279,2022-06-20 20:54:34,110423
60fd6b02340bf3233276eba9,ma_choice_v4_observers_pilot3,60fd6b02340bf3233276eba9,5,0,-1,-1,"Year building was built,Noise pollution,Amount of traffic,Quality of heat/AC system,Closeness to parks,Size of yard,Quality of kitchen,Size of home,Reputation of closest school","2016,Low,Very Little,Very Good,25 min away,50 square feet,Very Good,1100 square feet,Moderate","1960,High,A Moderate Amount,Moderate,10 min away,300 square feet,Moderate,700 square feet,Very Bad",0,0,7457,2022-06-20 20:54:42,110424
5fde9178341f425f8df0ac9d,ma_choice_v4_observers_pilot3,5fde9178341f425f8df0ac9d,6,1,-1,-1,"Reputation of closest school,Quality of kitchen,Amount of traffic,Year building was built,Quality of heat/AC system,Noise pollution,Closeness to parks,Size of yard,Size of home","Very Bad,Very Bad,A Lot,2006,Moderate,Moderate,15 min away,300 square feet,1100 square feet","Moderate,Very Good,Very Little,1955,Very Good,Very Low,25 min away,500 square feet,1500 square feet",1,1,16218,2022-06-20 20:54:50,110425
60fd6b02340bf3233276eba9,ma_choice_v4_observers_pilot3,60fd6b02340bf3233276eba9,6,0,-1,-1,"Year building was built,Reputation of closest school,Quality of kitchen,Noise pollution,Closeness to parks,Size of yard,Amount of traffic,Size of home,Quality of heat/AC system","1972,Good,Bad,High,30 min away,500 square feet,A Little,900 square feet,Very Good","1951,Very Bad,Good,Low,10 min away,300 square feet,A Lot,1200 square feet,Moderate",1,1,8048,2022-06-20 20:54:51,110426
60fd6b02340bf3233276eba9,ma_choice_v4_observers_pilot3,60fd6b02340bf3233276eba9,7,0,-1,-1,"Closeness to parks,Amount of traffic,Quality of kitchen,Size of yard,Size of home,Reputation of closest school,Year building was built,Quality of heat/AC system,Noise pollution","15 min away,A Little,Moderate,100 square feet,1000 square feet,Very Bad,1954,Moderate,Low","30 min away,A Lot,Very Good,450 square feet,600 square feet,Very Good,2016,Very Good,High",0,0,8096,2022-06-20 20:55:01,110427
5fde9178341f425f8df0ac9d,ma_choice_v4_observers_pilot3,5fde9178341f425f8df0ac9d,7,1,-1,-1,"Amount of traffic,Noise pollution,Quality of kitchen,Closeness to parks,Size of yard,Quality of heat/AC system,Size of home,Year building was built,Reputation of closest school","A Lot,Low,Good,30 min away,600 square feet,Good,1100 square feet,1971,Good","Very Little,High,Bad,10 min away,300 square feet,Bad,1400 square feet,2008,Very Bad",0,0,11922,2022-06-20 20:55:02,110428
60fd6b02340bf3233276eba9,ma_choice_v4_observers_pilot3,60fd6b02340bf3233276eba9,8,0,-1,-1,"Noise pollution,Size of home,Amount of traffic,Year building was built,Quality of heat/AC system,Reputation of closest school,Quality of kitchen,Closeness to parks,Size of yard","Low,900 square feet,Very Little,2002,Very Bad,Very Good,Bad,30 min away,500 square feet","High,1700 square feet,A Moderate Amount,1961,Moderate,Very Bad,Good,20 min away,250 square feet",0,0,8481,2022-06-20 20:55:10,110429
5a5bff49acc75b00017a6009,ma_choice_v4_observers_pilot3,5a5bff49acc75b00017a6009,4,0,-1,-1,"Size of home,Quality of kitchen,Reputation of closest school,Noise pollution,Year building was built,Quality of heat/AC system,Amount of traffic,Size of yard,Closeness to parks","1300 square feet,Very Bad,Very Bad,Low,2019,Bad,A Little,450 square feet,20 min away","900 square feet,Very Good,Good,High,1981,Good,A Lot,50 square feet,30 min away",1,1,71583,2022-06-20 20:55:13,110430
5fde9178341f425f8df0ac9d,ma_choice_v4_observers_pilot3,5fde9178341f425f8df0ac9d,8,1,-1,-1,"Quality of heat/AC system,Noise pollution,Reputation of closest school,Quality of kitchen,Amount of traffic,Size of yard,Size of home,Closeness to parks,Year building was built","Very Bad,Very Low,Good,Moderate,A Lot,450 square feet,1100 square feet,20 min away,1974","Good,Very High,Very Bad,Very Bad,A Little,200 square feet,1500 square feet,30 min away,2020",1,1,11667,2022-06-20 20:55:15,110431
60fd6b02340bf3233276eba9,ma_choice_v4_observers_pilot3,60fd6b02340bf3233276eba9,9,0,-1,-1,"Quality of heat/AC system,Year building was built,Reputation of closest school,Quality of kitchen,Noise pollution,Size of yard,Closeness to parks,Amount of traffic,Size of home","Bad,2013,Bad,Very Bad,Very High,200 square feet,10 min away,A Little,1500 square feet","Good,1984,Very Good,Moderate,Very Low,450 square feet,20 min away,A Lot,700 square feet",1,1,9324,2022-06-20 20:55:20,110432
5fde9178341f425f8df0ac9d,ma_choice_v4_observers_pilot3,5fde9178341f425f8df0ac9d,9,1,-1,-1,"Quality of heat/AC system,Amount of traffic,Closeness to parks,Year building was built,Size of home,Reputation of closest school,Size of yard,Quality of kitchen,Noise pollution","Very Bad,A Little,30 min away,1974,1200 square feet,Very Bad,100 square feet,Moderate,Very Low","Very Good,A Lot,10 min away,2013,700 square feet,Good,350 square feet,Very Bad,High",1,1,12675,2022-06-20 20:55:29,110433
60fd6b02340bf3233276eba9,ma_choice_v4_observers_pilot3,60fd6b02340bf3233276eba9,10,0,-1,-1,"Closeness to parks,Reputation of closest school,Noise pollution,Size of yard,Quality of kitchen,Size of home,Year building was built,Amount of traffic,Quality of heat/AC system","30 min away,Good,Moderate,0 square feet,Moderate,700 square feet,1954,Very Little,Very Good","10 min away,Bad,Very Low,350 square feet,Very Good,1300 square feet,1984,A Lot,Very Bad",1,1,9276,2022-06-20 20:55:31,110434
60fd6b02340bf3233276eba9,ma_choice_v4_observers_pilot3,60fd6b02340bf3233276eba9,11,0,-1,-1,"Amount of traffic,Closeness to parks,Quality of kitchen,Size of home,Year building was built,Reputation of closest school,Noise pollution,Quality of heat/AC system,Size of yard","A Lot,25 min away,Very Bad,1000 square feet,1992,Bad,Very Low,Good,350 square feet","Very Little,10 min away,Very Good,1600 square feet,1956,Very Good,Very High,Bad,50 square feet",0,0,8212,2022-06-20 20:55:40,110435
5a5bff49acc75b00017a6009,ma_choice_v4_observers_pilot3,5a5bff49acc75b00017a6009,5,0,-1,-1,"Reputation of closest school,Year building was built,Size of home,Closeness to parks,Amount of traffic,Quality of kitchen,Size of yard,Noise pollution,Quality of heat/AC system","Very Bad,2018,1300 square feet,30 min away,Very Little,Very Good,450 square feet,Low,Bad","Moderate,1951,1500 square feet,20 min away,A Moderate Amount,Very Bad,150 square feet,High,Very Good",0,0,35785,2022-06-20 20:55:49,110436
60fd6b02340bf3233276eba9,ma_choice_v4_observers_pilot3,60fd6b02340bf3233276eba9,12,0,-1,-1,"Noise pollution,Year building was built,Size of yard,Reputation of closest school,Amount of traffic,Quality of kitchen,Closeness to parks,Quality of heat/AC system,Size of home","Low,1984,600 square feet,Very Bad,Very Little,Good,15 min away,Bad,1500 square feet","Very High,2007,350 square feet,Good,A Moderate Amount,Bad,30 min away,Very Good,1100 square feet",0,0,8365,2022-06-20 20:55:49,110437
60fd6b02340bf3233276eba9,ma_choice_v4_observers_pilot3,60fd6b02340bf3233276eba9,13,0,-1,-1,"Size of yard,Amount of traffic,Quality of heat/AC system,Size of home,Reputation of closest school,Closeness to parks,Year building was built,Quality of kitchen,Noise pollution","600 square feet,A Lot,Good,800 square feet,Good,20 min away,1962,Good,Very High","250 square feet,A Little,Very Bad,1800 square feet,Bad,10 min away,2005,Very Bad,Very Low",1,1,9776,2022-06-20 20:56:00,110438
60fd6b02340bf3233276eba9,ma_choice_v4_observers_pilot3,60fd6b02340bf3233276eba9,14,0,-1,-1,"Noise pollution,Size of yard,Reputation of closest school,Size of home,Amount of traffic,Quality of kitchen,Quality of heat/AC system,Closeness to parks,Year building was built","Very High,550 square feet,Bad,700 square feet,A Moderate Amount,Bad,Good,25 min away,1985","Very Low,200 square feet,Very Good,1200 square feet,Very Little,Good,Very Bad,15 min away,2012",1,1,9320,2022-06-20 20:56:10,110439
5fde9178341f425f8df0ac9d,ma_choice_v4_observers_pilot3,5fde9178341f425f8df0ac9d,0,0,-1,-1,"Size of yard,Closeness to parks,Amount of traffic,Quality of kitchen,Year building was built,Reputation of closest school,Size of home,Quality of heat/AC system,Noise pollution","450 square feet,20 min away,A Moderate Amount,Moderate,2008,Good,1400 square feet,Good,Very High","100 square feet,10 min away,Very Little,Very Bad,1954,Bad,1000 square feet,Bad,Very Low",0,0,14711,2022-06-20 20:56:12,110440
5fde9178341f425f8df0ac9d,ma_choice_v4_observers_pilot3,5fde9178341f425f8df0ac9d,1,0,-1,-1,"Size of yard,Size of home,Quality of kitchen,Amount of traffic,Closeness to parks,Reputation of closest school,Year building was built,Quality of heat/AC system,Noise pollution","600 square feet,1600 square feet,Very Good,A Lot,25 min away,Bad,2001,Bad,Very High","350 square feet,800 square feet,Very Bad,Very Little,15 min away,Good,1975,Good,Moderate",0,0,14462,2022-06-20 20:56:28,110441
60fd6b02340bf3233276eba9,ma_choice_v4_observers_pilot3,60fd6b02340bf3233276eba9,15,0,-1,-1,"Size of home,Closeness to parks,Quality of heat/AC system,Amount of traffic,Year building was built,Size of yard,Noise pollution,Quality of kitchen,Reputation of closest school","1200 square feet,10 min away,Very Bad,A Little,1959,400 square feet,Very Low,Very Bad,Good","1700 square feet,20 min away,Moderate,A Lot,1987,0 square feet,Very High,Good,Bad",0,0,19104,2022-06-20 20:56:30,110442
5fde9178341f425f8df0ac9d,ma_choice_v4_observers_pilot3,5fde9178341f425f8df0ac9d,2,0,-1,-1,"Year building was built,Reputation of closest school,Closeness to parks,Quality of heat/AC system,Noise pollution,Size of home,Quality of kitchen,Amount of traffic,Size of yard","1990,Very Bad,15 min away,Moderate,Very High,600 square feet,Moderate,A Lot,250 square feet","1969,Moderate,25 min away,Very Bad,Low,1400 square feet,Very Bad,A Little,50 square feet",0,0,11968,2022-06-20 20:56:40,110443
60fd6b02340bf3233276eba9,ma_choice_v4_observers_pilot3,60fd6b02340bf3233276eba9,16,0,-1,-1,"Amount of traffic,Closeness to parks,Noise pollution,Quality of kitchen,Reputation of closest school,Size of home,Size of yard,Quality of heat/AC system,Year building was built","A Little,20 min away,High,Very Good,Bad,900 square feet,100 square feet,Very Bad,1950","A Lot,30 min away,Low,Moderate,Very Good,1300 square feet,400 square feet,Very Good,1971",1,1,13598,2022-06-20 20:56:45,110444
5fde9178341f425f8df0ac9d,ma_choice_v4_observers_pilot3,5fde9178341f425f8df0ac9d,3,0,-1,-1,"Quality of heat/AC system,Amount of traffic,Reputation of closest school,Size of home,Closeness to parks,Noise pollution,Size of yard,Quality of kitchen,Year building was built","Good,A Lot,Moderate,1200 square feet,10 min away,High,50 square feet,Very Bad,1965","Very Bad,Very Little,Very Good,900 square feet,25 min away,Low,300 square feet,Good,2001",0,0,9130,2022-06-20 20:56:51,110445
60fd6b02340bf3233276eba9,ma_choice_v4_observers_pilot3,60fd6b02340bf3233276eba9,17,0,-1,-1,"Reputation of closest school,Year building was built,Amount of traffic,Size of home,Noise pollution,Quality of kitchen,Quality of heat/AC system,Size of yard,Closeness to parks","Very Bad,1993,A Little,1100 square feet,Very High,Very Bad,Very Bad,500 square feet,15 min away","Good,2016,A Lot,1700 square feet,Moderate,Moderate,Good,50 square feet,30 min away",1,1,10802,2022-06-20 20:56:57,110446
611edfe04f9fc63d5fe3084b,ma_choice_v4_observers_pilot3,611edfe04f9fc63d5fe3084b,0,1,-1,-1,"Noise pollution,Size of yard,Reputation of closest school,Closeness to parks,Amount of traffic,Quality of heat/AC system,Quality of kitchen,Year building was built,Size of home","Very Low,450 square feet,Moderate,20 min away,Very Little,Moderate,Very Bad,2005,1800 square feet","Moderate,150 square feet,Very Good,30 min away,A Lot,Very Bad,Moderate,1970,1400 square feet",0,0,31261,2022-06-20 20:56:58,110447
5fde9178341f425f8df0ac9d,ma_choice_v4_observers_pilot3,5fde9178341f425f8df0ac9d,4,0,-1,-1,"Size of yard,Noise pollution,Year building was built,Quality of heat/AC system,Quality of kitchen,Reputation of closest school,Amount of traffic,Size of home,Closeness to parks","400 square feet,Very High,2015,Bad,Moderate,Moderate,A Lot,1400 square feet,10 min away","550 square feet,Very Low,1974,Good,Very Bad,Very Bad,A Little,1100 square feet,20 min away",0,0,9355,2022-06-20 20:57:01,110448
5a5bff49acc75b00017a6009,ma_choice_v4_observers_pilot3,5a5bff49acc75b00017a6009,6,0,-1,-1,"Reputation of closest school,Size of home,Noise pollution,Year building was built,Quality of heat/AC system,Amount of traffic,Size of yard,Closeness to parks,Quality of kitchen","Good,1700 square feet,High,2004,Very Good,A Little,200 square feet,25 min away,Very Good","Bad,1000 square feet,Very Low,1961,Moderate,A Lot,600 square feet,15 min away,Very Bad",0,0,71788,2022-06-20 20:57:03,110449
60fd6b02340bf3233276eba9,ma_choice_v4_observers_pilot3,60fd6b02340bf3233276eba9,18,0,-1,-1,"Reputation of closest school,Noise pollution,Size of yard,Closeness to parks,Year building was built,Quality of kitchen,Quality of heat/AC system,Amount of traffic,Size of home","Good,Low,150 square feet,15 min away,1959,Good,Bad,A Moderate Amount,1100 square feet","Very Bad,High,450 square feet,25 min away,2006,Bad,Very Good,Very Little,1400 square feet",0,0,8571,2022-06-20 20:57:06,110450
5fde9178341f425f8df0ac9d,ma_choice_v4_observers_pilot3,5fde9178341f425f8df0ac9d,5,0,-1,-1,"Quality of kitchen,Quality of heat/AC system,Closeness to parks,Year building was built,Reputation of closest school,Amount of traffic,Size of yard,Size of home,Noise pollution","Moderate,Good,15 min away,1968,Moderate,Very Little,600 square feet,600 square feet,High","Very Bad,Bad,25 min away,2013,Very Bad,A Lot,0 square feet,1100 square feet,Low",0,0,8963,2022-06-20 20:57:11,110451
611edfe04f9fc63d5fe3084b,ma_choice_v4_observers_pilot3,611edfe04f9fc63d5fe3084b,1,1,-1,-1,"Size of yard,Amount of traffic,Reputation of closest school,Noise pollution,Size of home,Quality of heat/AC system,Quality of kitchen,Year building was built,Closeness to parks","350 square feet,A Little,Very Bad,Very High,1000 square feet,Very Good,Very Bad,1972,10 min away","150 square feet,A Lot,Moderate,Low,1300 square feet,Moderate,Good,2016,25 min away",1,1,14428,2022-06-20 20:57:13,110452
60fd6b02340bf3233276eba9,ma_choice_v4_observers_pilot3,60fd6b02340bf3233276eba9,19,0,-1,-1,"Noise pollution,Amount of traffic,Quality of heat/AC system,Size of yard,Size of home,Reputation of closest school,Year building was built,Closeness to parks,Quality of kitchen","High,A Lot,Good,50 square feet,900 square feet,Good,1981,30 min away,Very Good","Low,A Little,Bad,450 square feet,1300 square feet,Very Bad,2019,20 min away,Very Bad",1,1,7694,2022-06-20 20:57:15,110453
5a5bff49acc75b00017a6009,ma_choice_v4_observers_pilot3,5a5bff49acc75b00017a6009,7,0,-1,-1,"Noise pollution,Size of yard,Quality of kitchen,Amount of traffic,Reputation of closest school,Quality of heat/AC system,Size of home,Closeness to parks,Year building was built","Very Low,150 square feet,Very Good,Very Little,Good,Good,600 square feet,20 min away,1961","High,450 square feet,Moderate,A Lot,Bad,Very Bad,1800 square feet,30 min away,1986",1,1,16695,2022-06-20 20:57:20,110454
5fde9178341f425f8df0ac9d,ma_choice_v4_observers_pilot3,5fde9178341f425f8df0ac9d,6,0,-1,-1,"Closeness to parks,Quality of kitchen,Amount of traffic,Size of yard,Size of home,Quality of heat/AC system,Year building was built,Reputation of closest school,Noise pollution","20 min away,Very Bad,A Lot,350 square feet,600 square feet,Moderate,1989,Bad,High","10 min away,Very Good,A Little,50 square feet,1600 square feet,Very Good,1961,Very Good,Very Low",1,1,9045,2022-06-20 20:57:21,110455
60fd6b02340bf3233276eba9,ma_choice_v4_observers_pilot3,60fd6b02340bf3233276eba9,20,0,-1,-1,"Closeness to parks,Noise pollution,Size of home,Size of yard,Quality of heat/AC system,Amount of traffic,Year building was built,Reputation of closest school,Quality of kitchen","25 min away,Very High,1600 square feet,600 square feet,Bad,A Lot,2001,Bad,Very Good","15 min away,Moderate,800 square feet,350 square feet,Good,Very Little,1975,Good,Very Bad",1,1,7724,2022-06-20 20:57:24,110456
5fde9178341f425f8df0ac9d,ma_choice_v4_observers_pilot3,5fde9178341f425f8df0ac9d,7,0,-1,-1,"Quality of heat/AC system,Reputation of closest school,Year building was built,Size of yard,Amount of traffic,Noise pollution,Size of home,Quality of kitchen,Closeness to parks","Bad,Moderate,2007,50 square feet,A Lot,Moderate,1100 square feet,Good,25 min away","Good,Very Bad,1985,550 square feet,Very Little,Very Low,700 square feet,Very Bad,15 min away",1,1,9626,2022-06-20 20:57:32,110457
60fd6b02340bf3233276eba9,ma_choice_v4_observers_pilot3,60fd6b02340bf3233276eba9,21,0,-1,-1,"Quality of kitchen,Year building was built,Reputation of closest school,Quality of heat/AC system,Closeness to parks,Amount of traffic,Size of yard,Size of home,Noise pollution","Good,2003,Bad,Very Good,10 min away,A Moderate Amount,600 square feet,1800 square feet,Very Low","Bad,1961,Very Good,Moderate,25 min away,Very Little,150 square feet,900 square feet,High",0,0,8457,2022-06-20 20:57:33,110458
60fd6b02340bf3233276eba9,ma_choice_v4_observers_pilot3,60fd6b02340bf3233276eba9,22,0,-1,-1,"Size of yard,Quality of kitchen,Year building was built,Noise pollution,Amount of traffic,Quality of heat/AC system,Closeness to parks,Reputation of closest school,Size of home","100 square feet,Very Bad,1990,Moderate,A Little,Very Bad,10 min away,Very Good,1000 square feet","300 square feet,Moderate,2010,Very High,A Lot,Moderate,25 min away,Bad,1600 square feet",0,0,9119,2022-06-20 20:57:43,110459
611edfe04f9fc63d5fe3084b,ma_choice_v4_observers_pilot3,611edfe04f9fc63d5fe3084b,2,1,-1,-1,"Year building was built,Reputation of closest school,Size of home,Closeness to parks,Size of yard,Quality of heat/AC system,Noise pollution,Quality of kitchen,Amount of traffic","2020,Very Bad,1500 square feet,30 min away,200 square feet,Good,Very High,Very Bad,A Little","1974,Good,1100 square feet,20 min away,450 square feet,Very Bad,Very Low,Moderate,A Lot",1,1,31362,2022-06-20 20:57:45,110460
5fde9178341f425f8df0ac9d,ma_choice_v4_observers_pilot3,5fde9178341f425f8df0ac9d,8,0,-1,-1,"Amount of traffic,Quality of kitchen,Year building was built,Size of yard,Quality of heat/AC system,Size of home,Noise pollution,Reputation of closest school,Closeness to parks","A Little,Very Good,1957,250 square feet,Very Good,700 square feet,High,Very Good,25 min away","A Lot,Bad,1981,450 square feet,Moderate,1700 square feet,Low,Bad,10 min away",0,0,12918,2022-06-20 20:57:46,110461
5a5bff49acc75b00017a6009,ma_choice_v4_observers_pilot3,5a5bff49acc75b00017a6009,8,0,-1,-1,"Amount of traffic,Noise pollution,Reputation of closest school,Closeness to parks,Quality of heat/AC system,Size of yard,Quality of kitchen,Year building was built,Size of home","A Lot,Very High,Bad,30 min away,Good,100 square feet,Good,1997,600 square feet","A Little,Very Low,Good,15 min away,Very Bad,250 square feet,Very Bad,2017,900 square feet",1,1,31897,2022-06-20 20:57:53,110462
60fd6b02340bf3233276eba9,ma_choice_v4_observers_pilot3,60fd6b02340bf3233276eba9,23,0,-1,-1,"Size of home,Quality of kitchen,Reputation of closest school,Noise pollution,Year building was built,Amount of traffic,Size of yard,Closeness to parks,Quality of heat/AC system","1000 square feet,Good,Very Bad,Very Low,2011,Very Little,50 square feet,25 min away,Bad","1600 square feet,Bad,Very Good,Moderate,1978,A Moderate Amount,550 square feet,15 min away,Very Good",0,0,8152,2022-06-20 20:57:53,110463
5fde9178341f425f8df0ac9d,ma_choice_v4_observers_pilot3,5fde9178341f425f8df0ac9d,9,0,-1,-1,"Amount of traffic,Noise pollution,Quality of kitchen,Closeness to parks,Size of yard,Reputation of closest school,Size of home,Quality of heat/AC system,Year building was built","A Moderate Amount,Moderate,Bad,15 min away,550 square feet,Very Good,1600 square feet,Very Good,1978","Very Little,Very Low,Good,25 min away,50 square feet,Very Bad,1000 square feet,Bad,2011",0,0,9905,2022-06-20 20:57:56,110464
611edfe04f9fc63d5fe3084b,ma_choice_v4_observers_pilot3,611edfe04f9fc63d5fe3084b,3,1,-1,-1,"Size of home,Reputation of closest school,Amount of traffic,Year building was built,Size of yard,Quality of heat/AC system,Closeness to parks,Noise pollution,Quality of kitchen","1100 square feet,Good,A Moderate Amount,1973,400 square feet,Very Good,25 min away,Very Low,Good","1300 square feet,Bad,Very Little,2012,50 square feet,Very Bad,15 min away,High,Bad",0,0,12337,2022-06-20 20:57:59,110465
60fd6b02340bf3233276eba9,ma_choice_v4_observers_pilot3,60fd6b02340bf3233276eba9,24,0,-1,-1,"Closeness to parks,Reputation of closest school,Size of home,Quality of heat/AC system,Noise pollution,Size of yard,Quality of kitchen,Year building was built,Amount of traffic","30 min away,Good,1300 square feet,Very Good,Low,200 square feet,Moderate,1978,Very Little","10 min away,Bad,1000 square feet,Bad,High,450 square feet,Very Good,1958,A Lot",0,0,9579,2022-06-20 20:58:03,110466
5fde9178341f425f8df0ac9d,ma_choice_v4_observers_pilot3,5fde9178341f425f8df0ac9d,10,0,-1,-1,"Quality of kitchen,Size of home,Quality of heat/AC system,Reputation of closest school,Noise pollution,Amount of traffic,Year building was built,Size of yard,Closeness to parks","Very Good,1600 square feet,Bad,Very Good,Very High,Very Little,1956,50 square feet,10 min away","Very Bad,1000 square feet,Good,Bad,Very Low,A Lot,1992,350 square feet,25 min away",1,1,10324,2022-06-20 20:58:08,110467
60fd6b02340bf3233276eba9,ma_choice_v4_observers_pilot3,60fd6b02340bf3233276eba9,25,0,-1,-1,"Reputation of closest school,Closeness to parks,Noise pollution,Amount of traffic,Quality of heat/AC system,Quality of kitchen,Size of home,Size of yard,Year building was built","Moderate,10 min away,Moderate,Very Little,Very Good,Moderate,1200 square feet,250 square feet,1962","Very Good,25 min away,Very Low,A Moderate Amount,Very Bad,Very Bad,700 square feet,400 square feet,1998",1,1,8629,2022-06-20 20:58:13,110468
5fde9178341f425f8df0ac9d,ma_choice_v4_observers_pilot3,5fde9178341f425f8df0ac9d,11,0,-1,-1,"Year building was built,Size of home,Size of yard,Reputation of closest school,Amount of traffic,Noise pollution,Closeness to parks,Quality of kitchen,Quality of heat/AC system","1950,1200 square feet,200 square feet,Moderate,A Little,Very High,10 min away,Very Bad,Very Bad","1992,1700 square feet,400 square feet,Very Bad,A Lot,Moderate,20 min away,Good,Moderate",1,1,12837,2022-06-20 20:58:22,110469
60fd6b02340bf3233276eba9,ma_choice_v4_observers_pilot3,60fd6b02340bf3233276eba9,26,0,-1,-1,"Amount of traffic,Noise pollution,Quality of kitchen,Closeness to parks,Year building was built,Size of home,Reputation of closest school,Quality of heat/AC system,Size of yard","A Little,Very High,Bad,30 min away,2019,600 square feet,Very Good,Bad,0 square feet","A Lot,Very Low,Very Good,15 min away,1968,1000 square feet,Moderate,Good,300 square feet",1,1,7843,2022-06-20 20:58:22,110470
5a5bff49acc75b00017a6009,ma_choice_v4_observers_pilot3,5a5bff49acc75b00017a6009,9,0,-1,-1,"Quality of kitchen,Reputation of closest school,Noise pollution,Closeness to parks,Size of home,Amount of traffic,Quality of heat/AC system,Year building was built,Size of yard","Moderate,Moderate,Very High,15 min away,1800 square feet,A Little,Very Bad,1965,400 square feet","Very Good,Very Good,Very Low,30 min away,600 square feet,A Lot,Very Good,1986,50 square feet",1,1,31357,2022-06-20 20:58:25,110471
611edfe04f9fc63d5fe3084b,ma_choice_v4_observers_pilot3,611edfe04f9fc63d5fe3084b,4,1,-1,-1,"Year building was built,Quality of kitchen,Quality of heat/AC system,Closeness to parks,Reputation of closest school,Noise pollution,Size of yard,Size of home,Amount of traffic","1974,Moderate,Very Bad,30 min away,Very Bad,Very Low,100 square feet,1200 square feet,A Little","2013,Very Bad,Very Good,10 min away,Good,High,350 square feet,700 square feet,A Lot",1,1,26306,2022-06-20 20:58:26,110472
60fd6b02340bf3233276eba9,ma_choice_v4_observers_pilot3,60fd6b02340bf3233276eba9,27,0,-1,-1,"Quality of heat/AC system,Quality of kitchen,Amount of traffic,Noise pollution,Reputation of closest school,Year building was built,Closeness to parks,Size of home,Size of yard","Moderate,Very Bad,A Lot,Very Low,Bad,1961,15 min away,1000 square feet,600 square feet","Very Good,Very Good,A Little,High,Good,2004,25 min away,1700 square feet,200 square feet",0,0,8361,2022-06-20 20:58:31,110473
5fde9178341f425f8df0ac9d,ma_choice_v4_observers_pilot3,5fde9178341f425f8df0ac9d,12,0,-1,-1,"Size of yard,Amount of traffic,Year building was built,Quality of kitchen,Noise pollution,Closeness to parks,Quality of heat/AC system,Size of home,Reputation of closest school","200 square feet,Very Little,1995,Very Bad,Moderate,10 min away,Bad,1500 square feet,Bad","50 square feet,A Lot,1958,Moderate,Very High,25 min away,Very Good,1700 square feet,Good",0,0,10764,2022-06-20 20:58:33,110474
60fd6b02340bf3233276eba9,ma_choice_v4_observers_pilot3,60fd6b02340bf3233276eba9,28,0,-1,-1,"Year building was built,Quality of heat/AC system,Size of yard,Amount of traffic,Noise pollution,Size of home,Closeness to parks,Quality of kitchen,Reputation of closest school","2014,Good,450 square feet,A Little,Low,1400 square feet,30 min away,Bad,Moderate","1957,Very Bad,50 square feet,A Lot,High,1100 square feet,10 min away,Very Good,Very Good",0,0,7682,2022-06-20 20:58:40,110475
5fde9178341f425f8df0ac9d,ma_choice_v4_observers_pilot3,5fde9178341f425f8df0ac9d,13,0,-1,-1,"Noise pollution,Quality of heat/AC system,Size of home,Reputation of closest school,Amount of traffic,Year building was built,Closeness to parks,Size of yard,Quality of kitchen","High,Moderate,700 square feet,Bad,A Little,1963,15 min away,200 square feet,Very Good","Very Low,Very Bad,1000 square feet,Good,A Lot,1983,25 min away,450 square feet,Bad",0,0,9104,2022-06-20 20:58:44,110476
60fd6b02340bf3233276eba9,ma_choice_v4_observers_pilot3,60fd6b02340bf3233276eba9,29,0,-1,-1,"Reputation of closest school,Year building was built,Size of home,Size of yard,Closeness to parks,Quality of heat/AC system,Amount of traffic,Noise pollution,Quality of kitchen","Bad,1969,1100 square feet,100 square feet,10 min away,Bad,Very Little,Very Low,Very Good","Good,2002,700 square feet,300 square feet,30 min away,Good,A Moderate Amount,Moderate,Moderate",0,0,7863,2022-06-20 20:58:49,110477
5a5bff49acc75b00017a6009,ma_choice_v4_observers_pilot3,5a5bff49acc75b00017a6009,10,0,-1,-1,"Closeness to parks,Noise pollution,Size of home,Year building was built,Amount of traffic,Reputation of closest school,Size of yard,Quality of heat/AC system,Quality of kitchen","25 min away,Low,1100 square feet,2013,A Lot,Very Bad,0 square feet,Bad,Very Bad","15 min away,High,600 square feet,1968,Very Little,Moderate,600 square feet,Good,Moderate",0,0,24314,2022-06-20 20:58:50,110478
5fde9178341f425f8df0ac9d,ma_choice_v4_observers_pilot3,5fde9178341f425f8df0ac9d,14,0,-1,-1,"Closeness to parks,Reputation of closest school,Quality of kitchen,Year building was built,Amount of traffic,Size of yard,Quality of heat/AC system,Size of home,Noise pollution","10 min away,Good,Very Good,1971,Very Little,350 square feet,Very Bad,700 square feet,Very Low","20 min away,Bad,Bad,2000,A Moderate Amount,600 square feet,Moderate,1200 square feet,High",0,0,8179,2022-06-20 20:58:53,110479
60fd6b02340bf3233276eba9,ma_choice_v4_observers_pilot3,60fd6b02340bf3233276eba9,30,0,-1,-1,"Closeness to parks,Size of yard,Size of home,Quality of heat/AC system,Noise pollution,Year building was built,Amount of traffic,Quality of kitchen,Reputation of closest school","30 min away,100 square feet,1100 square feet,Very Good,Very High,1951,Very Little,Good,Very Good","15 min away,300 square feet,1400 square feet,Moderate,Low,2006,A Lot,Very Bad,Moderate",1,1,8137,2022-06-20 20:58:58,110480
611edfe04f9fc63d5fe3084b,ma_choice_v4_observers_pilot3,611edfe04f9fc63d5fe3084b,5,1,-1,-1,"Size of home,Amount of traffic,Quality of heat/AC system,Size of yard,Quality of kitchen,Year building was built,Closeness to parks,Reputation of closest school,Noise pollution","1700 square feet,A Little,Moderate,100 square feet,Very Good,1993,20 min away,Very Good,High","800 square feet,A Lot,Very Good,250 square feet,Bad,1953,30 min away,Moderate,Low",0,0,32490,2022-06-20 20:58:59,110481
5fde9178341f425f8df0ac9d,ma_choice_v4_observers_pilot3,5fde9178341f425f8df0ac9d,15,0,-1,-1,"Size of home,Reputation of closest school,Quality of heat/AC system,Quality of kitchen,Year building was built,Noise pollution,Closeness to parks,Size of yard,Amount of traffic","1500 square feet,Good,Good,Very Good,1986,Very High,15 min away,400 square feet,A Lot","700 square feet,Very Bad,Bad,Bad,2010,Low,25 min away,150 square feet,A Little",0,0,7961,2022-06-20 20:59:02,110482
60fd6b02340bf3233276eba9,ma_choice_v4_observers_pilot3,60fd6b02340bf3233276eba9,31,0,-1,-1,"Size of home,Size of yard,Reputation of closest school,Year building was built,Quality of heat/AC system,Noise pollution,Amount of traffic,Quality of kitchen,Closeness to parks","600 square feet,350 square feet,Bad,1989,Moderate,High,A Lot,Very Bad,20 min away","1600 square feet,50 square feet,Very Good,1961,Very Good,Very Low,A Little,Very Good,10 min away",1,1,8774,2022-06-20 20:59:08,110483
5fde9178341f425f8df0ac9d,ma_choice_v4_observers_pilot3,5fde9178341f425f8df0ac9d,16,0,-1,-1,"Size of home,Reputation of closest school,Amount of traffic,Closeness to parks,Quality of kitchen,Size of yard,Noise pollution,Quality of heat/AC system,Year building was built","1300 square feet,Bad,Very Little,30 min away,Bad,550 square feet,High,Very Bad,2012","1000 square feet,Good,A Lot,10 min away,Very Good,100 square feet,Low,Moderate,1987",1,1,7928,2022-06-20 20:59:11,110484
5a5bff49acc75b00017a6009,ma_choice_v4_observers_pilot3,5a5bff49acc75b00017a6009,11,0,-1,-1,"Reputation of closest school,Quality of kitchen,Closeness to parks,Year building was built,Size of yard,Quality of heat/AC system,Size of home,Amount of traffic,Noise pollution","Very Bad,Good,20 min away,1992,400 square feet,Moderate,1700 square feet,A Lot,Moderate","Moderate,Very Bad,10 min away,1950,200 square feet,Very Bad,1200 square feet,A Little,Very High",0,0,20754,2022-06-20 20:59:12,110485
60fd6b02340bf3233276eba9,ma_choice_v4_observers_pilot3,60fd6b02340bf3233276eba9,32,0,-1,-1,"Size of home,Quality of kitchen,Reputation of closest school,Closeness to parks,Noise pollution,Quality of heat/AC system,Year building was built,Amount of traffic,Size of yard","1700 square feet,Very Bad,Bad,20 min away,Moderate,Bad,2010,A Moderate Amount,300 square feet","900 square feet,Very Good,Very Good,30 min away,Very High,Good,1970,Very Little,550 square feet",0,0,9383,2022-06-20 20:59:18,110486
5fde9178341f425f8df0ac9d,ma_choice_v4_observers_pilot3,5fde9178341f425f8df0ac9d,17,0,-1,-1,"Closeness to parks,Amount of traffic,Quality of kitchen,Noise pollution,Size of yard,Year building was built,Quality of heat/AC system,Size of home,Reputation of closest school","15 min away,Very Little,Moderate,Very Low,300 square feet,1966,Very Good,800 square feet,Bad","30 min away,A Lot,Very Bad,Moderate,100 square feet,1987,Moderate,1400 square feet,Good",0,0,8130,2022-06-20 20:59:20,110487
611edfe04f9fc63d5fe3084b,ma_choice_v4_observers_pilot3,611edfe04f9fc63d5fe3084b,6,1,-1,-1,"Noise pollution,Size of home,Reputation of closest school,Quality of kitchen,Quality of heat/AC system,Amount of traffic,Size of yard,Closeness to parks,Year building was built","High,1400 square feet,Very Bad,Bad,Bad,Very Little,300 square feet,10 min away,2008","Low,1100 square feet,Good,Good,Good,A Lot,600 square feet,30 min away,1971",1,1,19679,2022-06-20 20:59:20,110488
60fd6b02340bf3233276eba9,ma_choice_v4_observers_pilot3,60fd6b02340bf3233276eba9,33,0,-1,-1,"Quality of kitchen,Reputation of closest school,Size of yard,Amount of traffic,Quality of heat/AC system,Year building was built,Closeness to parks,Noise pollution,Size of home","Good,Very Bad,150 square feet,Very Little,Moderate,1969,15 min away,High,700 square feet","Very Bad,Good,400 square feet,A Lot,Very Bad,2010,25 min away,Low,1000 square feet",1,1,7900,2022-06-20 20:59:27,110489
5fde9178341f425f8df0ac9d,ma_choice_v4_observers_pilot3,5fde9178341f425f8df0ac9d,18,0,-1,-1,"Size of yard,Amount of traffic,Year building was built,Size of home,Noise pollution,Closeness to parks,Quality of kitchen,Reputation of closest school,Quality of heat/AC system","350 square feet,A Moderate Amount,1957,1300 square feet,Very High,30 min away,Very Good,Very Good,Good","0 square feet,Very Little,1999,800 square feet,Low,10 min away,Moderate,Moderate,Very Bad",0,0,10260,2022-06-20 20:59:31,110490
5a5bff49acc75b00017a6009,ma_choice_v4_observers_pilot3,5a5bff49acc75b00017a6009,12,0,-1,-1,"Year building was built,Noise pollution,Amount of traffic,Quality of kitchen,Size of yard,Size of home,Quality of heat/AC system,Reputation of closest school,Closeness to parks","1978,Low,Very Little,Moderate,200 square feet,1300 square feet,Very Good,Good,30 min away","1958,High,A Lot,Very Good,450 square feet,1000 square feet,Bad,Bad,10 min away",0,0,18526,2022-06-20 20:59:32,110491
60fd6b02340bf3233276eba9,ma_choice_v4_observers_pilot3,60fd6b02340bf3233276eba9,34,0,-1,-1,"Noise pollution,Year building was built,Closeness to parks,Quality of heat/AC system,Size of yard,Size of home,Reputation of closest school,Amount of traffic,Quality of kitchen","Low,1956,10 min away,Moderate,150 square feet,1600 square feet,Very Bad,A Moderate Amount,Very Bad","Very High,1990,25 min away,Very Bad,600 square feet,1100 square feet,Good,Very Little,Moderate",0,0,7525,2022-06-20 20:59:35,110492
611edfe04f9fc63d5fe3084b,ma_choice_v4_observers_pilot3,611edfe04f9fc63d5fe3084b,7,1,-1,-1,"Reputation of closest school,Year building was built,Size of home,Quality of kitchen,Amount of traffic,Noise pollution,Quality of heat/AC system,Size of yard,Closeness to parks","Moderate,1950,1400 square feet,Moderate,A Lot,Very High,Good,150 square feet,15 min away","Very Good,2009,1600 square feet,Very Good,Very Little,Low,Bad,300 square feet,30 min away",1,1,16622,2022-06-20 20:59:38,110493
5fde9178341f425f8df0ac9d,ma_choice_v4_observers_pilot3,5fde9178341f425f8df0ac9d,19,0,-1,-1,"Reputation of closest school,Closeness to parks,Quality of kitchen,Size of home,Quality of heat/AC system,Noise pollution,Year building was built,Amount of traffic,Size of yard","Very Good,15 min away,Bad,1400 square feet,Very Good,Very Low,1990,A Lot,450 square feet","Moderate,30 min away,Good,1600 square feet,Very Bad,High,1957,A Little,50 square feet",0,0,8640,2022-06-20 20:59:41,110494
60fd6b02340bf3233276eba9,ma_choice_v4_observers_pilot3,60fd6b02340bf3233276eba9,35,0,-1,-1,"Year building was built,Quality of heat/AC system,Size of home,Noise pollution,Quality of kitchen,Size of yard,Amount of traffic,Reputation of closest school,Closeness to parks","1987,Very Bad,1100 square feet,Very Low,Very Good,350 square feet,A Little,Very Good,30 min away","1956,Very Good,600 square feet,High,Very Bad,150 square feet,A Lot,Very Bad,15 min away",0,0,7924,2022-06-20 20:59:44,110495
611edfe04f9fc63d5fe3084b,ma_choice_v4_observers_pilot3,611edfe04f9fc63d5fe3084b,8,1,-1,-1,"Closeness to parks,Year building was built,Quality of kitchen,Noise pollution,Size of yard,Amount of traffic,Reputation of closest school,Size of home,Quality of heat/AC system","25 min away,1955,Very Good,Very Low,500 square feet,Very Little,Moderate,1500 square feet,Very Good","15 min away,2006,Very Bad,Moderate,300 square feet,A Lot,Very Bad,1100 square feet,Moderate",0,0,11677,2022-06-20 20:59:50,110496
5fde9178341f425f8df0ac9d,ma_choice_v4_observers_pilot3,5fde9178341f425f8df0ac9d,20,0,-1,-1,"Quality of kitchen,Year building was built,Reputation of closest school,Closeness to parks,Noise pollution,Size of home,Quality of heat/AC system,Amount of traffic,Size of yard","Very Good,1989,Good,10 min away,Moderate,1700 square feet,Very Good,A Moderate Amount,300 square feet","Very Bad,1951,Bad,20 min away,Very Low,1100 square feet,Moderate,Very Little,100 square feet",0,0,9284,2022-06-20 20:59:51,110497
60fd6b02340bf3233276eba9,ma_choice_v4_observers_pilot3,60fd6b02340bf3233276eba9,36,0,-1,-1,"Amount of traffic,Reputation of closest school,Size of home,Quality of heat/AC system,Quality of kitchen,Closeness to parks,Size of yard,Noise pollution,Year building was built","Very Little,Bad,900 square feet,Very Good,Moderate,30 min away,300 square feet,Very Low,2000","A Moderate Amount,Very Good,1600 square feet,Bad,Very Bad,20 min away,50 square feet,Moderate,1951",0,0,7591,2022-06-20 20:59:53,110498
60fd6b02340bf3233276eba9,ma_choice_v4_observers_pilot3,60fd6b02340bf3233276eba9,37,0,-1,-1,"Quality of kitchen,Size of yard,Amount of traffic,Year building was built,Quality of heat/AC system,Noise pollution,Closeness to parks,Reputation of closest school,Size of home","Bad,400 square feet,A Lot,1997,Moderate,Moderate,20 min away,Bad,1500 square feet","Very Good,200 square feet,A Little,1953,Very Bad,Very High,10 min away,Good,900 square feet",0,0,8006,2022-06-20 21:00:02,110499
5fde9178341f425f8df0ac9d,ma_choice_v4_observers_pilot3,5fde9178341f425f8df0ac9d,21,0,-1,-1,"Reputation of closest school,Size of home,Size of yard,Closeness to parks,Amount of traffic,Year building was built,Quality of heat/AC system,Noise pollution,Quality of kitchen","Very Good,700 square feet,0 square feet,15 min away,A Little,2003,Very Bad,Very High,Good","Bad,1800 square feet,300 square feet,25 min away,A Lot,1983,Moderate,Moderate,Very Bad",0,0,9969,2022-06-20 21:00:02,110500
60fd6b02340bf3233276eba9,ma_choice_v4_observers_pilot3,60fd6b02340bf3233276eba9,38,0,-1,-1,"Reputation of closest school,Noise pollution,Size of yard,Quality of heat/AC system,Closeness to parks,Year building was built,Size of home,Quality of kitchen,Amount of traffic","Very Bad,High,500 square feet,Very Bad,15 min away,1963,800 square feet,Very Good,A Lot","Good,Very Low,250 square feet,Moderate,25 min away,1997,1500 square feet,Moderate,A Little",1,1,8017,2022-06-20 21:00:11,110501
5a5bff49acc75b00017a6009,ma_choice_v4_observers_pilot3,5a5bff49acc75b00017a6009,13,0,-1,-1,"Reputation of closest school,Quality of heat/AC system,Noise pollution,Size of yard,Closeness to parks,Amount of traffic,Year building was built,Size of home,Quality of kitchen","Good,Bad,Very High,100 square feet,20 min away,Very Little,1965,800 square feet,Very Good","Bad,Good,Very Low,400 square feet,30 min away,A Lot,1990,1800 square feet,Bad",1,1,38650,2022-06-20 21:00:11,110502
5fde9178341f425f8df0ac9d,ma_choice_v4_observers_pilot3,5fde9178341f425f8df0ac9d,22,0,-1,-1,"Noise pollution,Closeness to parks,Quality of kitchen,Reputation of closest school,Size of home,Year building was built,Size of yard,Quality of heat/AC system,Amount of traffic","Very High,15 min away,Moderate,Bad,1600 square feet,1987,0 square feet,Very Good,Very Little","Very Low,25 min away,Very Good,Good,1300 square feet,1953,450 square feet,Very Bad,A Moderate Amount",0,0,9423,2022-06-20 21:00:12,110503
611edfe04f9fc63d5fe3084b,ma_choice_v4_observers_pilot3,611edfe04f9fc63d5fe3084b,9,1,-1,-1,"Size of yard,Noise pollution,Quality of heat/AC system,Quality of kitchen,Closeness to parks,Amount of traffic,Reputation of closest school,Year building was built,Size of home","350 square feet,Very Low,Moderate,Good,10 min away,Very Little,Very Bad,1995,900 square feet","500 square feet,Very High,Very Good,Very Bad,20 min away,A Lot,Good,1950,600 square feet",0,0,28329,2022-06-20 21:00:20,110504
60fd6b02340bf3233276eba9,ma_choice_v4_observers_pilot3,60fd6b02340bf3233276eba9,39,0,-1,-1,"Amount of traffic,Closeness to parks,Quality of heat/AC system,Noise pollution,Quality of kitchen,Year building was built,Reputation of closest school,Size of yard,Size of home","Very Little,15 min away,Good,Very Low,Very Bad,1985,Very Bad,550 square feet,700 square feet","A Lot,25 min away,Bad,Moderate,Good,2007,Moderate,50 square feet,1100 square feet",0,0,8388,2022-06-20 21:00:20,110505
5fde9178341f425f8df0ac9d,ma_choice_v4_observers_pilot3,5fde9178341f425f8df0ac9d,23,0,-1,-1,"Size of yard,Quality of heat/AC system,Size of home,Quality of kitchen,Amount of traffic,Year building was built,Noise pollution,Reputation of closest school,Closeness to parks","300 square feet,Very Good,1100 square feet,Bad,Very Little,1964,Low,Very Bad,15 min away","50 square feet,Moderate,700 square feet,Good,A Moderate Amount,2000,High,Good,25 min away",0,0,10139,2022-06-20 21:00:24,110506
60fd6b02340bf3233276eba9,ma_choice_v4_observers_pilot3,60fd6b02340bf3233276eba9,40,0,-1,-1,"Reputation of closest school,Size of home,Amount of traffic,Closeness to parks,Year building was built,Noise pollution,Quality of heat/AC system,Quality of kitchen,Size of yard","Very Bad,700 square feet,A Little,25 min away,2010,Low,Bad,Bad,150 square feet","Good,1500 square feet,A Lot,15 min away,1986,Very High,Good,Very Good,400 square feet",0,0,7471,2022-06-20 21:00:29,110507
5fde9178341f425f8df0ac9d,ma_choice_v4_observers_pilot3,5fde9178341f425f8df0ac9d,24,0,-1,-1,"Quality of kitchen,Amount of traffic,Quality of heat/AC system,Year building was built,Closeness to parks,Size of yard,Noise pollution,Reputation of closest school,Size of home","Very Good,A Moderate Amount,Bad,1964,10 min away,400 square feet,Very Low,Good,900 square feet","Bad,Very Little,Good,2013,30 min away,600 square feet,Moderate,Very Bad,1500 square feet",0,0,8169,2022-06-20 21:00:33,110508
60fd6b02340bf3233276eba9,ma_choice_v4_observers_pilot3,60fd6b02340bf3233276eba9,41,0,-1,-1,"Year building was built,Closeness to parks,Size of home,Quality of kitchen,Reputation of closest school,Noise pollution,Amount of traffic,Quality of heat/AC system,Size of yard","1950,15 min away,1700 square feet,Bad,Very Bad,Very High,A Lot,Bad,400 square feet","1970,25 min away,1000 square feet,Good,Moderate,Moderate,A Little,Very Good,200 square feet",1,1,7530,2022-06-20 21:00:37,110509
5fc035f6c039c1402117124b,ma_choice_v4_observers_pilot3,5fc035f6c039c1402117124b,0,1,-1,-1,"Size of home,Quality of heat/AC system,Amount of traffic,Quality of kitchen,Closeness to parks,Year building was built,Reputation of closest school,Size of yard,Noise pollution","1100 square feet,Very Good,A Moderate Amount,Good,25 min away,1973,Good,400 square feet,Very Low","1300 square feet,Very Bad,Very Little,Bad,15 min away,2012,Bad,50 square feet,High",0,0,18453,2022-06-20 21:00:43,110510
60fd6b02340bf3233276eba9,ma_choice_v4_observers_pilot3,60fd6b02340bf3233276eba9,42,0,-1,-1,"Year building was built,Reputation of closest school,Amount of traffic,Size of yard,Quality of kitchen,Size of home,Noise pollution,Quality of heat/AC system,Closeness to parks","1959,Bad,A Moderate Amount,450 square feet,Good,1700 square feet,Very High,Bad,30 min away","2004,Good,Very Little,250 square feet,Very Bad,1000 square feet,Very Low,Good,20 min away",1,1,7792,2022-06-20 21:00:46,110511
5a5bff49acc75b00017a6009,ma_choice_v4_observers_pilot3,5a5bff49acc75b00017a6009,14,0,-1,-1,"Reputation of closest school,Quality of heat/AC system,Closeness to parks,Quality of kitchen,Year building was built,Size of yard,Size of home,Noise pollution,Amount of traffic","Moderate,Good,15 min away,Very Good,1968,300 square feet,1000 square feet,Very Low,A Lot","Very Good,Bad,30 min away,Bad,2019,0 square feet,600 square feet,Very High,A Little",1,1,38626,2022-06-20 21:00:51,110512
5fde9178341f425f8df0ac9d,ma_choice_v4_observers_pilot3,5fde9178341f425f8df0ac9d,25,0,-1,-1,"Reputation of closest school,Quality of kitchen,Noise pollution,Size of yard,Quality of heat/AC system,Closeness to parks,Amount of traffic,Year building was built,Size of home","Very Good,Very Bad,Moderate,50 square feet,Bad,20 min away,A Moderate Amount,1951,1600 square feet","Bad,Moderate,Very Low,300 square feet,Very Good,30 min away,Very Little,2000,900 square feet",1,1,20115,2022-06-20 21:00:54,110513
60fd6b02340bf3233276eba9,ma_choice_v4_observers_pilot3,60fd6b02340bf3233276eba9,43,0,-1,-1,"Amount of traffic,Size of home,Noise pollution,Reputation of closest school,Size of yard,Closeness to parks,Quality of heat/AC system,Quality of kitchen,Year building was built","Very Little,1100 square feet,Low,Very Bad,300 square feet,15 min away,Very Good,Bad,1964","A Moderate Amount,700 square feet,High,Good,50 square feet,25 min away,Moderate,Good,2000",0,0,7729,2022-06-20 21:00:55,110514
60fd6b02340bf3233276eba9,ma_choice_v4_observers_pilot3,60fd6b02340bf3233276eba9,44,0,-1,-1,"Reputation of closest school,Year building was built,Closeness to parks,Noise pollution,Amount of traffic,Size of home,Quality of heat/AC system,Quality of kitchen,Size of yard","Good,2010,20 min away,High,A Lot,1400 square feet,Very Good,Bad,400 square feet","Bad,1985,10 min away,Very Low,A Little,700 square feet,Moderate,Good,250 square feet",1,1,7503,2022-06-20 21:01:03,110515
5fc035f6c039c1402117124b,ma_choice_v4_observers_pilot3,5fc035f6c039c1402117124b,1,1,-1,-1,"Closeness to parks,Size of home,Year building was built,Amount of traffic,Noise pollution,Size of yard,Quality of kitchen,Reputation of closest school,Quality of heat/AC system","15 min away,1400 square feet,1950,A Lot,Very High,150 square feet,Moderate,Moderate,Good","30 min away,1600 square feet,2009,Very Little,Low,300 square feet,Very Good,Very Good,Bad",1,1,21401,2022-06-20 21:01:05,110516
5fde9178341f425f8df0ac9d,ma_choice_v4_observers_pilot3,5fde9178341f425f8df0ac9d,26,0,-1,-1,"Quality of kitchen,Size of home,Amount of traffic,Noise pollution,Quality of heat/AC system,Reputation of closest school,Size of yard,Closeness to parks,Year building was built","Bad,900 square feet,A Little,High,Very Good,Good,500 square feet,30 min away,1972","Good,1200 square feet,A Lot,Low,Moderate,Very Bad,300 square feet,10 min away,1951",1,1,12010,2022-06-20 21:01:07,110517
60fd6b02340bf3233276eba9,ma_choice_v4_observers_pilot3,60fd6b02340bf3233276eba9,45,0,-1,-1,"Size of yard,Year building was built,Quality of kitchen,Closeness to parks,Amount of traffic,Noise pollution,Reputation of closest school,Quality of heat/AC system,Size of home","50 square feet,1958,Moderate,10 min away,Very Little,Very Low,Moderate,Very Good,1800 square feet","300 square feet,2008,Very Good,20 min away,A Moderate Amount,High,Very Good,Moderate,600 square feet",0,0,7767,2022-06-20 21:01:12,110518
5fde9178341f425f8df0ac9d,ma_choice_v4_observers_pilot3,5fde9178341f425f8df0ac9d,27,0,-1,-1,"Year building was built,Noise pollution,Reputation of closest school,Quality of heat/AC system,Amount of traffic,Closeness to parks,Quality of kitchen,Size of yard,Size of home","1961,High,Very Bad,Moderate,A Moderate Amount,20 min away,Good,250 square feet,1700 square feet","2002,Low,Very Good,Very Bad,Very Little,30 min away,Bad,500 square feet,900 square feet",0,0,9659,2022-06-20 21:01:18,110519
60fd6b02340bf3233276eba9,ma_choice_v4_observers_pilot3,60fd6b02340bf3233276eba9,46,0,-1,-1,"Year building was built,Closeness to parks,Size of yard,Quality of heat/AC system,Size of home,Quality of kitchen,Reputation of closest school,Amount of traffic,Noise pollution","1983,30 min away,500 square feet,Bad,600 square feet,Very Good,Very Good,A Moderate Amount,Very Low","2017,15 min away,150 square feet,Good,900 square feet,Very Bad,Moderate,Very Little,Moderate",0,0,7560,2022-06-20 21:01:21,110520
5a5bff49acc75b00017a6009,ma_choice_v4_observers_pilot3,5a5bff49acc75b00017a6009,15,0,-1,-1,"Year building was built,Amount of traffic,Noise pollution,Quality of kitchen,Quality of heat/AC system,Size of home,Size of yard,Reputation of closest school,Closeness to parks","1982,Very Little,Moderate,Moderate,Very Good,700 square feet,100 square feet,Very Good,30 min away","2005,A Moderate Amount,Very High,Very Bad,Bad,1500 square feet,500 square feet,Very Bad,10 min away",0,0,36108,2022-06-20 21:01:28,110521
5fde9178341f425f8df0ac9d,ma_choice_v4_observers_pilot3,5fde9178341f425f8df0ac9d,28,0,-1,-1,"Noise pollution,Year building was built,Closeness to parks,Quality of kitchen,Amount of traffic,Quality of heat/AC system,Size of yard,Reputation of closest school,Size of home","Very High,1990,25 min away,Moderate,Very Little,Very Bad,600 square feet,Good,1100 square feet","Low,1956,10 min away,Very Bad,A Moderate Amount,Moderate,150 square feet,Very Bad,1600 square feet",0,0,9901,2022-06-20 21:01:28,110522
60fd6b02340bf3233276eba9,ma_choice_v4_observers_pilot3,60fd6b02340bf3233276eba9,47,0,-1,-1,"Reputation of closest school,Amount of traffic,Closeness to parks,Year building was built,Quality of kitchen,Quality of heat/AC system,Size of yard,Noise pollution,Size of home","Very Good,A Lot,10 min away,2018,Bad,Very Bad,50 square feet,Very Low,800 square feet","Bad,A Little,20 min away,1964,Good,Moderate,300 square feet,High,1100 square feet",0,0,8092,2022-06-20 21:01:30,110523
5fc035f6c039c1402117124b,ma_choice_v4_observers_pilot3,5fc035f6c039c1402117124b,2,1,-1,-1,"Year building was built,Quality of heat/AC system,Amount of traffic,Size of home,Size of yard,Quality of kitchen,Noise pollution,Reputation of closest school,Closeness to parks","1955,Very Good,Very Little,1500 square feet,500 square feet,Very Good,Very Low,Moderate,25 min away","2006,Moderate,A Lot,1100 square feet,300 square feet,Very Bad,Moderate,Very Bad,15 min away",0,0,24946,2022-06-20 21:01:31,110524
60fd6b02340bf3233276eba9,ma_choice_v4_observers_pilot3,60fd6b02340bf3233276eba9,48,0,-1,-1,"Size of yard,Quality of kitchen,Noise pollution,Size of home,Closeness to parks,Year building was built,Reputation of closest school,Amount of traffic,Quality of heat/AC system","450 square feet,Moderate,High,1800 square feet,30 min away,1986,Bad,A Lot,Very Bad","150 square feet,Very Good,Very Low,600 square feet,20 min away,1961,Good,Very Little,Good",1,1,7516,2022-06-20 21:01:38,110525
5fde9178341f425f8df0ac9d,ma_choice_v4_observers_pilot3,5fde9178341f425f8df0ac9d,29,0,-1,-1,"Noise pollution,Reputation of closest school,Quality of kitchen,Closeness to parks,Year building was built,Quality of heat/AC system,Size of home,Size of yard,Amount of traffic","Very Low,Very Good,Very Good,30 min away,1986,Very Good,600 square feet,50 square feet,A Lot","Very High,Moderate,Moderate,15 min away,1965,Very Bad,1800 square feet,400 square feet,A Little",0,0,15943,2022-06-20 21:01:45,110526
5fc035f6c039c1402117124b,ma_choice_v4_observers_pilot3,5fc035f6c039c1402117124b,3,1,-1,-1,"Closeness to parks,Quality of heat/AC system,Amount of traffic,Noise pollution,Size of yard,Size of home,Quality of kitchen,Year building was built,Reputation of closest school","30 min away,Very Bad,A Lot,Moderate,150 square feet,1400 square feet,Moderate,1970,Very Good","20 min away,Moderate,Very Little,Very Low,450 square feet,1800 square feet,Very Bad,2005,Moderate",0,0,14455,2022-06-20 21:01:47,110527
60fd6b02340bf3233276eba9,ma_choice_v4_observers_pilot3,60fd6b02340bf3233276eba9,49,0,-1,-1,"Size of yard,Noise pollution,Quality of heat/AC system,Quality of kitchen,Year building was built,Amount of traffic,Reputation of closest school,Size of home,Closeness to parks","50 square feet,Very High,Bad,Good,1973,Very Little,Good,800 square feet,15 min away","550 square feet,Moderate,Good,Very Bad,2005,A Moderate Amount,Bad,600 square feet,30 min away",1,1,7661,2022-06-20 21:01:47,110528
611edfe04f9fc63d5fe3084b,ma_choice_v4_observers_pilot3,611edfe04f9fc63d5fe3084b,0,0,-1,-1,"Quality of heat/AC system,Year building was built,Closeness to parks,Noise pollution,Quality of kitchen,Size of yard,Reputation of closest school,Size of home,Amount of traffic","Bad,2015,10 min away,Very High,Moderate,400 square feet,Moderate,1400 square feet,A Lot","Good,1974,20 min away,Very Low,Very Bad,550 square feet,Very Bad,1100 square feet,A Little",0,0,31246,2022-06-20 21:01:55,110529
5a5bff49acc75b00017a6009,ma_choice_v4_observers_pilot3,5a5bff49acc75b00017a6009,16,0,-1,-1,"Closeness to parks,Amount of traffic,Size of yard,Quality of kitchen,Noise pollution,Size of home,Year building was built,Reputation of closest school,Quality of heat/AC system","15 min away,A Little,50 square feet,Very Good,Moderate,1200 square feet,2009,Very Good,Very Good","30 min away,A Lot,450 square feet,Very Bad,Very High,1500 square feet,1964,Bad,Very Bad",0,0,25569,2022-06-20 21:01:55,110530
5fde9178341f425f8df0ac9d,ma_choice_v4_observers_pilot3,5fde9178341f425f8df0ac9d,30,0,-1,-1,"Noise pollution,Size of yard,Closeness to parks,Reputation of closest school,Size of home,Year building was built,Amount of traffic,Quality of kitchen,Quality of heat/AC system","Very High,250 square feet,10 min away,Good,1200 square feet,1954,Very Little,Bad,Moderate","Very Low,0 square feet,20 min away,Bad,1500 square feet,1980,A Moderate Amount,Good,Very Good",1,1,8212,2022-06-20 21:01:55,110531
60fd6b02340bf3233276eba9,ma_choice_v4_observers_pilot3,60fd6b02340bf3233276eba9,50,0,-1,-1,"Size of home,Closeness to parks,Reputation of closest school,Quality of heat/AC system,Quality of kitchen,Amount of traffic,Year building was built,Noise pollution,Size of yard","1500 square feet,25 min away,Good,Moderate,Moderate,Very Little,2012,High,550 square feet","1000 square feet,10 min away,Bad,Very Good,Very Bad,A Moderate Amount,1983,Low,250 square feet",1,1,7572,2022-06-20 21:01:56,110532
5fc035f6c039c1402117124b,ma_choice_v4_observers_pilot3,5fc035f6c039c1402117124b,4,1,-1,-1,"Quality of heat/AC system,Reputation of closest school,Size of yard,Quality of kitchen,Amount of traffic,Year building was built,Size of home,Closeness to parks,Noise pollution","Very Good,Very Bad,350 square feet,Very Bad,A Little,1972,1000 square feet,10 min away,Very High","Moderate,Moderate,150 square feet,Good,A Lot,2016,1300 square feet,25 min away,Low",1,1,13336,2022-06-20 21:02:01,110533
60fd6b02340bf3233276eba9,ma_choice_v4_observers_pilot3,60fd6b02340bf3233276eba9,51,0,-1,-1,"Amount of traffic,Quality of heat/AC system,Noise pollution,Reputation of closest school,Size of home,Closeness to parks,Quality of kitchen,Size of yard,Year building was built","A Lot,Good,Very High,Bad,1600 square feet,20 min away,Very Good,200 square feet,1964","A Little,Bad,Low,Good,1200 square feet,30 min away,Very Bad,350 square feet,2000",1,1,8099,2022-06-20 21:02:05,110534
5fc035f6c039c1402117124b,ma_choice_v4_observers_pilot3,5fc035f6c039c1402117124b,5,1,-1,-1,"Reputation of closest school,Quality of heat/AC system,Amount of traffic,Year building was built,Size of home,Noise pollution,Closeness to parks,Size of yard,Quality of kitchen","Very Bad,Bad,Very Little,2008,1400 square feet,High,10 min away,300 square feet,Bad","Good,Good,A Lot,1971,1100 square feet,Low,30 min away,600 square feet,Good",1,1,8996,2022-06-20 21:02:11,110535
60fd6b02340bf3233276eba9,ma_choice_v4_observers_pilot3,60fd6b02340bf3233276eba9,52,0,-1,-1,"Quality of kitchen,Noise pollution,Reputation of closest school,Amount of traffic,Quality of heat/AC system,Size of home,Closeness to parks,Size of yard,Year building was built","Moderate,High,Bad,A Moderate Amount,Very Bad,900 square feet,10 min away,150 square feet,2003","Very Good,Low,Good,Very Little,Moderate,1500 square feet,20 min away,350 square feet,1982",1,1,8195,2022-06-20 21:02:14,110536
5fc035f6c039c1402117124b,ma_choice_v4_observers_pilot3,5fc035f6c039c1402117124b,6,1,-1,-1,"Size of yard,Noise pollution,Reputation of closest school,Quality of kitchen,Size of home,Amount of traffic,Year building was built,Closeness to parks,Quality of heat/AC system","200 square feet,Very High,Very Bad,Very Bad,1500 square feet,A Little,2020,30 min away,Good","450 square feet,Very Low,Good,Moderate,1100 square feet,A Lot,1974,20 min away,Very Bad",1,1,10245,2022-06-20 21:02:22,110537
60fd6b02340bf3233276eba9,ma_choice_v4_observers_pilot3,60fd6b02340bf3233276eba9,53,0,-1,-1,"Closeness to parks,Amount of traffic,Year building was built,Reputation of closest school,Size of home,Noise pollution,Quality of kitchen,Quality of heat/AC system,Size of yard","25 min away,Very Little,1950,Good,800 square feet,Low,Very Bad,Very Good,100 square feet","10 min away,A Moderate Amount,1986,Very Bad,1800 square feet,High,Very Good,Bad,500 square feet",0,0,7483,2022-06-20 21:02:22,110538
611edfe04f9fc63d5fe3084b,ma_choice_v4_observers_pilot3,611edfe04f9fc63d5fe3084b,1,0,-1,-1,"Reputation of closest school,Amount of traffic,Size of yard,Size of home,Year building was built,Noise pollution,Closeness to parks,Quality of heat/AC system,Quality of kitchen","Bad,A Moderate Amount,450 square feet,1700 square feet,1959,Very High,30 min away,Bad,Good","Good,Very Little,250 square feet,1000 square feet,2004,Very Low,20 min away,Good,Very Bad",0,0,29024,2022-06-20 21:02:24,110539
5fde9178341f425f8df0ac9d,ma_choice_v4_observers_pilot3,5fde9178341f425f8df0ac9d,31,0,-1,-1,"Size of yard,Quality of heat/AC system,Noise pollution,Quality of kitchen,Closeness to parks,Amount of traffic,Size of home,Reputation of closest school,Year building was built","300 square feet,Moderate,Very High,Moderate,25 min away,A Lot,1600 square feet,Bad,2010","100 square feet,Very Bad,Moderate,Very Bad,10 min away,A Little,1000 square feet,Very Good,1990",0,0,30920,2022-06-20 21:02:27,110540
60fd6b02340bf3233276eba9,ma_choice_v4_observers_pilot3,60fd6b02340bf3233276eba9,54,0,-1,-1,"Noise pollution,Quality of kitchen,Size of yard,Reputation of closest school,Amount of traffic,Size of home,Closeness to parks,Quality of heat/AC system,Year building was built","Very High,Moderate,250 square feet,Very Bad,A Lot,600 square feet,15 min away,Moderate,1990","Low,Very Bad,50 square feet,Moderate,A Little,1400 square feet,25 min away,Very Bad,1969",1,1,7497,2022-06-20 21:02:31,110541
5fc035f6c039c1402117124b,ma_choice_v4_observers_pilot3,5fc035f6c039c1402117124b,7,1,-1,-1,"Closeness to parks,Size of yard,Noise pollution,Quality of kitchen,Year building was built,Size of home,Quality of heat/AC system,Reputation of closest school,Amount of traffic","30 min away,250 square feet,Low,Bad,1953,800 square feet,Very Good,Moderate,A Lot","20 min away,100 square feet,High,Very Good,1993,1700 square feet,Moderate,Very Good,A Little",1,1,8037,2022-06-20 21:02:31,110542
60fd6b02340bf3233276eba9,ma_choice_v4_observers_pilot3,60fd6b02340bf3233276eba9,55,0,-1,-1,"Year building was built,Closeness to parks,Size of home,Amount of traffic,Size of yard,Quality of heat/AC system,Quality of kitchen,Noise pollution,Reputation of closest school","1979,25 min away,1200 square feet,A Moderate Amount,50 square feet,Very Bad,Very Good,Very Low,Bad","1950,10 min away,700 square feet,Very Little,450 square feet,Good,Bad,High,Good",0,0,7935,2022-06-20 21:02:40,110543
5fde9178341f425f8df0ac9d,ma_choice_v4_observers_pilot3,5fde9178341f425f8df0ac9d,32,0,-1,-1,"Closeness to parks,Size of home,Reputation of closest school,Year building was built,Amount of traffic,Quality of kitchen,Size of yard,Noise pollution,Quality of heat/AC system","25 min away,1500 square feet,Good,2012,Very Little,Moderate,550 square feet,High,Moderate","10 min away,1000 square feet,Bad,1983,A Moderate Amount,Very Bad,250 square feet,Low,Very Good",0,0,12418,2022-06-20 21:02:40,110544
5fc035f6c039c1402117124b,ma_choice_v4_observers_pilot3,5fc035f6c039c1402117124b,8,1,-1,-1,"Reputation of closest school,Year building was built,Size of yard,Closeness to parks,Quality of kitchen,Quality of heat/AC system,Noise pollution,Size of home,Amount of traffic","Very Bad,1995,350 square feet,10 min away,Good,Moderate,Very Low,900 square feet,Very Little","Good,1950,500 square feet,20 min away,Very Bad,Very Good,Very High,600 square feet,A Lot",1,1,9507,2022-06-20 21:02:42,110545
611edfe04f9fc63d5fe3084b,ma_choice_v4_observers_pilot3,611edfe04f9fc63d5fe3084b,2,0,-1,-1,"Size of home,Closeness to parks,Reputation of closest school,Amount of traffic,Year building was built,Quality of kitchen,Quality of heat/AC system,Noise pollution,Size of yard","600 square feet,15 min away,Moderate,Very Little,1968,Moderate,Good,High,600 square feet","1100 square feet,25 min away,Very Bad,A Lot,2013,Very Bad,Bad,Low,0 square feet",0,0,18390,2022-06-20 21:02:44,110546
60fd6b02340bf3233276eba9,ma_choice_v4_observers_pilot3,60fd6b02340bf3233276eba9,56,0,-1,-1,"Closeness to parks,Reputation of closest school,Size of home,Quality of heat/AC system,Quality of kitchen,Noise pollution,Year building was built,Amount of traffic,Size of yard","10 min away,Bad,1000 square feet,Bad,Very Bad,Very Low,1954,Very Little,100 square feet","20 min away,Good,1400 square feet,Good,Moderate,Very High,2008,A Moderate Amount,450 square feet",0,0,7373,2022-06-20 21:02:48,110547
5fde9178341f425f8df0ac9d,ma_choice_v4_observers_pilot3,5fde9178341f425f8df0ac9d,33,0,-1,-1,"Amount of traffic,Quality of heat/AC system,Size of yard,Size of home,Reputation of closest school,Closeness to parks,Quality of kitchen,Noise pollution,Year building was built","A Lot,Good,150 square feet,1500 square feet,Very Good,25 min away,Very Bad,Very High,1974","A Little,Very Bad,400 square feet,1100 square feet,Bad,10 min away,Very Good,Moderate,2016",1,1,8365,2022-06-20 21:02:49,110548
5fc035f6c039c1402117124b,ma_choice_v4_observers_pilot3,5fc035f6c039c1402117124b,9,1,-1,-1,"Size of home,Noise pollution,Year building was built,Quality of kitchen,Closeness to parks,Quality of heat/AC system,Amount of traffic,Reputation of closest school,Size of yard","700 square feet,High,2013,Very Bad,10 min away,Very Good,A Lot,Good,350 square feet","1200 square feet,Very Low,1974,Moderate,30 min away,Very Bad,A Little,Very Bad,100 square feet",0,0,7741,2022-06-20 21:02:51,110549
5a5bff49acc75b00017a6009,ma_choice_v4_observers_pilot3,5a5bff49acc75b00017a6009,17,0,-1,-1,"Size of yard,Amount of traffic,Size of home,Quality of kitchen,Quality of heat/AC system,Closeness to parks,Noise pollution,Reputation of closest school,Year building was built","0 square feet,Very Little,700 square feet,Moderate,Very Good,30 min away,Moderate,Good,1954","350 square feet,A Lot,1300 square feet,Very Good,Very Bad,10 min away,Very Low,Bad,1984",1,1,55152,2022-06-20 21:02:51,110550
60fd6b02340bf3233276eba9,ma_choice_v4_observers_pilot3,60fd6b02340bf3233276eba9,57,0,-1,-1,"Size of yard,Year building was built,Noise pollution,Size of home,Closeness to parks,Reputation of closest school,Quality of heat/AC system,Quality of kitchen,Amount of traffic","550 square feet,2012,High,1300 square feet,30 min away,Bad,Very Bad,Bad,Very Little","100 square feet,1987,Low,1000 square feet,10 min away,Good,Moderate,Very Good,A Lot",1,1,7505,2022-06-20 21:02:57,110551
611edfe04f9fc63d5fe3084b,ma_choice_v4_observers_pilot3,611edfe04f9fc63d5fe3084b,3,0,-1,-1,"Amount of traffic,Size of home,Closeness to parks,Year building was built,Noise pollution,Quality of kitchen,Size of yard,Quality of heat/AC system,Reputation of closest school","A Lot,1300 square feet,25 min away,1953,High,Moderate,50 square feet,Bad,Bad","A Little,900 square feet,15 min away,1984,Low,Very Bad,550 square feet,Very Good,Very Good",1,1,13603,2022-06-20 21:02:58,110552
5fde9178341f425f8df0ac9d,ma_choice_v4_observers_pilot3,5fde9178341f425f8df0ac9d,34,0,-1,-1,"Amount of traffic,Reputation of closest school,Quality of heat/AC system,Quality of kitchen,Size of yard,Closeness to parks,Noise pollution,Year building was built,Size of home","Very Little,Moderate,Very Good,Good,200 square feet,10 min away,Very Low,2016,700 square feet","A Moderate Amount,Very Good,Bad,Very Bad,550 square feet,20 min away,High,1974,1500 square feet",0,0,8655,2022-06-20 21:02:59,110553
60fd6b02340bf3233276eba9,ma_choice_v4_observers_pilot3,60fd6b02340bf3233276eba9,58,0,-1,-1,"Quality of heat/AC system,Quality of kitchen,Year building was built,Reputation of closest school,Amount of traffic,Noise pollution,Size of home,Closeness to parks,Size of yard","Very Bad,Very Bad,2017,Good,A Little,Very Low,900 square feet,15 min away,250 square feet","Good,Good,1997,Bad,A Lot,Very High,600 square feet,30 min away,100 square feet",0,0,7560,2022-06-20 21:03:05,110554
60fd6b02340bf3233276eba9,ma_choice_v4_observers_pilot3,60fd6b02340bf3233276eba9,59,0,-1,-1,"Size of yard,Noise pollution,Quality of heat/AC system,Year building was built,Closeness to parks,Amount of traffic,Size of home,Reputation of closest school,Quality of kitchen","100 square feet,Very High,Bad,1965,20 min away,Very Little,800 square feet,Good,Very Good","400 square feet,Very Low,Good,1990,30 min away,A Lot,1800 square feet,Bad,Bad",1,1,7879,2022-06-20 21:03:14,110555
5fde9178341f425f8df0ac9d,ma_choice_v4_observers_pilot3,5fde9178341f425f8df0ac9d,35,0,-1,-1,"Quality of kitchen,Noise pollution,Size of yard,Year building was built,Quality of heat/AC system,Closeness to parks,Size of home,Amount of traffic,Reputation of closest school","Very Bad,Low,300 square feet,2006,Moderate,15 min away,1400 square feet,A Lot,Moderate","Good,Very High,100 square feet,1951,Very Good,30 min away,1100 square feet,Very Little,Very Good",1,1,16348,2022-06-20 21:03:16,110556
5a5bff49acc75b00017a6009,ma_choice_v4_observers_pilot3,5a5bff49acc75b00017a6009,18,0,-1,-1,"Noise pollution,Size of yard,Reputation of closest school,Size of home,Quality of kitchen,Quality of heat/AC system,Closeness to parks,Amount of traffic,Year building was built","Low,100 square feet,Good,1000 square feet,Very Good,Moderate,10 min away,A Lot,1987","High,550 square feet,Bad,1300 square feet,Bad,Very Bad,30 min away,Very Little,2012",0,0,25526,2022-06-20 21:03:17,110557
611edfe04f9fc63d5fe3084b,ma_choice_v4_observers_pilot3,611edfe04f9fc63d5fe3084b,4,0,-1,-1,"Size of yard,Reputation of closest school,Noise pollution,Quality of heat/AC system,Year building was built,Amount of traffic,Size of home,Closeness to parks,Quality of kitchen","50 square feet,Very Good,High,Very Bad,1957,A Lot,1100 square feet,10 min away,Very Good","450 square feet,Moderate,Low,Good,2014,A Little,1400 square feet,30 min away,Bad",0,0,21181,2022-06-20 21:03:20,110558
60fd6b02340bf3233276eba9,ma_choice_v4_observers_pilot3,60fd6b02340bf3233276eba9,60,0,-1,-1,"Size of home,Size of yard,Reputation of closest school,Quality of kitchen,Amount of traffic,Closeness to parks,Quality of heat/AC system,Noise pollution,Year building was built","1000 square feet,300 square feet,Bad,Very Bad,A Little,30 min away,Very Bad,High,1977","1700 square feet,50 square feet,Good,Very Good,A Lot,10 min away,Very Good,Low,1953",1,1,7624,2022-06-20 21:03:23,110559
5fde9178341f425f8df0ac9d,ma_choice_v4_observers_pilot3,5fde9178341f425f8df0ac9d,36,0,-1,-1,"Quality of heat/AC system,Size of yard,Size of home,Amount of traffic,Closeness to parks,Reputation of closest school,Noise pollution,Quality of kitchen,Year building was built","Good,300 square feet,700 square feet,A Moderate Amount,30 min away,Good,Moderate,Moderate,2002","Bad,100 square feet,1100 square feet,Very Little,10 min away,Bad,Very Low,Very Good,1969",1,1,9132,2022-06-20 21:03:27,110560
60fd6b02340bf3233276eba9,ma_choice_v4_observers_pilot3,60fd6b02340bf3233276eba9,61,0,-1,-1,"Size of home,Size of yard,Amount of traffic,Quality of kitchen,Quality of heat/AC system,Closeness to parks,Noise pollution,Year building was built,Reputation of closest school","1200 square feet,50 square feet,Very Little,Moderate,Moderate,30 min away,High,2018,Bad","1700 square feet,550 square feet,A Moderate Amount,Very Bad,Very Bad,15 min away,Very Low,1994,Good",1,1,7750,2022-06-20 21:03:32,110561
611edfe04f9fc63d5fe3084b,ma_choice_v4_observers_pilot3,611edfe04f9fc63d5fe3084b,5,0,-1,-1,"Size of yard,Quality of kitchen,Reputation of closest school,Closeness to parks,Size of home,Year building was built,Noise pollution,Amount of traffic,Quality of heat/AC system","450 square feet,Very Good,Bad,10 min away,1000 square feet,1958,High,A Lot,Bad","200 square feet,Moderate,Good,30 min away,1300 square feet,1978,Low,Very Little,Very Good",1,1,13101,2022-06-20 21:03:35,110562
5a5bff49acc75b00017a6009,ma_choice_v4_observers_pilot3,5a5bff49acc75b00017a6009,19,0,-1,-1,"Year building was built,Quality of heat/AC system,Reputation of closest school,Amount of traffic,Quality of kitchen,Noise pollution,Size of yard,Size of home,Closeness to parks","2016,Very Bad,Bad,A Little,Very Good,Moderate,400 square feet,1100 square feet,10 min away","1974,Good,Very Good,A Lot,Very Bad,Very High,150 square feet,1500 square feet,25 min away",0,0,16922,2022-06-20 21:03:35,110563
5fc035f6c039c1402117124b,ma_choice_v4_observers_pilot3,5fc035f6c039c1402117124b,0,0,-1,-1,"Reputation of closest school,Year building was built,Noise pollution,Quality of heat/AC system,Closeness to parks,Quality of kitchen,Size of yard,Size of home,Amount of traffic","Very Bad,1960,Very Low,Very Good,10 min away,Very Good,200 square feet,1700 square feet,Very Little","Moderate,2013,High,Moderate,25 min away,Moderate,450 square feet,1100 square feet,A Moderate Amount",1,1,21223,2022-06-20 21:03:37,110564
5fde9178341f425f8df0ac9d,ma_choice_v4_observers_pilot3,5fde9178341f425f8df0ac9d,37,0,-1,-1,"Size of yard,Amount of traffic,Quality of kitchen,Size of home,Noise pollution,Quality of heat/AC system,Closeness to parks,Year building was built,Reputation of closest school","150 square feet,A Moderate Amount,Moderate,900 square feet,High,Very Bad,10 min away,2003,Bad","350 square feet,Very Little,Very Good,1500 square feet,Low,Moderate,20 min away,1982,Good",1,1,10404,2022-06-20 21:03:38,110565
60fd6b02340bf3233276eba9,ma_choice_v4_observers_pilot3,60fd6b02340bf3233276eba9,62,0,-1,-1,"Size of home,Size of yard,Quality of heat/AC system,Closeness to parks,Amount of traffic,Year building was built,Reputation of closest school,Quality of kitchen,Noise pollution","700 square feet,100 square feet,Very Good,30 min away,Very Little,1982,Very Good,Moderate,Moderate","1500 square feet,500 square feet,Bad,10 min away,A Moderate Amount,2005,Very Bad,Very Bad,Very High",0,0,7555,2022-06-20 21:03:40,110566
5fde9178341f425f8df0ac9d,ma_choice_v4_observers_pilot3,5fde9178341f425f8df0ac9d,38,0,-1,-1,"Year building was built,Noise pollution,Size of yard,Closeness to parks,Quality of kitchen,Amount of traffic,Quality of heat/AC system,Reputation of closest school,Size of home","1998,Very Low,400 square feet,25 min away,Very Bad,A Moderate Amount,Very Bad,Very Good,700 square feet","1962,Moderate,250 square feet,10 min away,Moderate,Very Little,Very Good,Moderate,1200 square feet",1,1,9093,2022-06-20 21:03:48,110567
60fd6b02340bf3233276eba9,ma_choice_v4_observers_pilot3,60fd6b02340bf3233276eba9,63,0,-1,-1,"Noise pollution,Closeness to parks,Amount of traffic,Quality of kitchen,Size of yard,Reputation of closest school,Year building was built,Quality of heat/AC system,Size of home","Very Low,10 min away,Very Little,Very Good,350 square feet,Good,1971,Very Bad,700 square feet","High,20 min away,A Moderate Amount,Bad,600 square feet,Bad,2000,Moderate,1200 square feet",0,0,7497,2022-06-20 21:03:49,110568
5fc035f6c039c1402117124b,ma_choice_v4_observers_pilot3,5fc035f6c039c1402117124b,1,0,-1,-1,"Closeness to parks,Noise pollution,Quality of kitchen,Size of home,Quality of heat/AC system,Reputation of closest school,Year building was built,Size of yard,Amount of traffic","15 min away,High,Very Good,700 square feet,Moderate,Bad,1963,200 square feet,A Little","25 min away,Very Low,Bad,1000 square feet,Very Bad,Good,1983,450 square feet,A Lot",1,1,12961,2022-06-20 21:03:51,110569
60fd6b02340bf3233276eba9,ma_choice_v4_observers_pilot3,60fd6b02340bf3233276eba9,64,0,-1,-1,"Reputation of closest school,Size of yard,Amount of traffic,Year building was built,Quality of heat/AC system,Noise pollution,Closeness to parks,Quality of kitchen,Size of home","Good,150 square feet,A Little,1980,Very Bad,Moderate,20 min away,Very Good,1700 square feet","Bad,350 square feet,A Lot,1951,Good,Very Low,10 min away,Very Bad,1200 square feet",1,1,7546,2022-06-20 21:03:57,110570
5fde9178341f425f8df0ac9d,ma_choice_v4_observers_pilot3,5fde9178341f425f8df0ac9d,39,0,-1,-1,"Closeness to parks,Noise pollution,Year building was built,Size of yard,Reputation of closest school,Amount of traffic,Size of home,Quality of heat/AC system,Quality of kitchen","10 min away,Very Low,2018,50 square feet,Very Good,A Lot,800 square feet,Very Bad,Bad","20 min away,High,1964,300 square feet,Bad,A Little,1100 square feet,Moderate,Good",1,1,10196,2022-06-20 21:03:59,110571
5fc035f6c039c1402117124b,ma_choice_v4_observers_pilot3,5fc035f6c039c1402117124b,2,0,-1,-1,"Noise pollution,Closeness to parks,Size of home,Reputation of closest school,Quality of heat/AC system,Year building was built,Size of yard,Quality of kitchen,Amount of traffic","Low,10 min away,1300 square feet,Very Good,Bad,1954,350 square feet,Very Good,A Moderate Amount","High,20 min away,1600 square feet,Moderate,Very Good,2013,500 square feet,Bad,Very Little",0,0,7790,2022-06-20 21:04:00,110572
5a5bff49acc75b00017a6009,ma_choice_v4_observers_pilot3,5a5bff49acc75b00017a6009,20,0,-1,-1,"Amount of traffic,Year building was built,Size of yard,Quality of heat/AC system,Closeness to parks,Size of home,Quality of kitchen,Noise pollution,Reputation of closest school","A Lot,1991,200 square feet,Very Bad,15 min away,1300 square feet,Moderate,Low,Moderate","A Little,2015,500 square feet,Very Good,25 min away,1000 square feet,Very Bad,Very High,Very Bad",0,0,24217,2022-06-20 21:04:00,110573
611edfe04f9fc63d5fe3084b,ma_choice_v4_observers_pilot3,611edfe04f9fc63d5fe3084b,6,0,-1,-1,"Year building was built,Size of yard,Quality of heat/AC system,Quality of kitchen,Closeness to parks,Reputation of closest school,Size of home,Noise pollution,Amount of traffic","1984,600 square feet,Bad,Good,15 min away,Very Bad,1500 square feet,Low,Very Little","2007,350 square feet,Very Good,Bad,30 min away,Good,1100 square feet,Very High,A Moderate Amount",0,0,27531,2022-06-20 21:04:03,110574
60fd6b02340bf3233276eba9,ma_choice_v4_observers_pilot3,60fd6b02340bf3233276eba9,65,0,-1,-1,"Reputation of closest school,Year building was built,Amount of traffic,Noise pollution,Quality of heat/AC system,Quality of kitchen,Size of home,Size of yard,Closeness to parks","Good,2014,A Lot,Low,Very Good,Good,800 square feet,500 square feet,25 min away","Very Bad,1990,Very Little,Very High,Moderate,Very Bad,1500 square feet,250 square feet,15 min away",0,0,7513,2022-06-20 21:04:06,110575
5fde9178341f425f8df0ac9d,ma_choice_v4_observers_pilot3,5fde9178341f425f8df0ac9d,40,0,-1,-1,"Size of home,Noise pollution,Quality of heat/AC system,Year building was built,Reputation of closest school,Size of yard,Closeness to parks,Quality of kitchen,Amount of traffic","1100 square feet,Low,Very Good,2016,Moderate,50 square feet,25 min away,Very Good,Very Little","700 square feet,High,Moderate,1960,Very Bad,300 square feet,10 min away,Moderate,A Moderate Amount",1,1,8226,2022-06-20 21:04:08,110576
60fd6b02340bf3233276eba9,ma_choice_v4_observers_pilot3,60fd6b02340bf3233276eba9,66,0,-1,-1,"Amount of traffic,Year building was built,Reputation of closest school,Closeness to parks,Quality of heat/AC system,Size of home,Size of yard,Quality of kitchen,Noise pollution","A Moderate Amount,1959,Moderate,30 min away,Very Bad,700 square feet,550 square feet,Bad,Very High","Very Little,2010,Very Good,10 min away,Moderate,1100 square feet,350 square feet,Good,Low",1,1,7694,2022-06-20 21:04:14,110577
5fc035f6c039c1402117124b,ma_choice_v4_observers_pilot3,5fc035f6c039c1402117124b,3,0,-1,-1,"Closeness to parks,Size of yard,Noise pollution,Amount of traffic,Size of home,Quality of heat/AC system,Reputation of closest school,Year building was built,Quality of kitchen","30 min away,0 square feet,Moderate,Very Little,700 square feet,Very Good,Good,1954,Moderate","10 min away,350 square feet,Very Low,A Lot,1300 square feet,Very Bad,Bad,1984,Very Good",0,0,14210,2022-06-20 21:04:15,110578
5fde9178341f425f8df0ac9d,ma_choice_v4_observers_pilot3,5fde9178341f425f8df0ac9d,41,0,-1,-1,"Noise pollution,Amount of traffic,Size of home,Size of yard,Year building was built,Quality of heat/AC system,Closeness to parks,Reputation of closest school,Quality of kitchen","High,A Moderate Amount,600 square feet,300 square feet,2008,Moderate,20 min away,Very Good,Very Good","Very Low,Very Little,1800 square feet,50 square feet,1958,Very Good,10 min away,Moderate,Moderate",1,1,8374,2022-06-20 21:04:18,110579
5a5bff49acc75b00017a6009,ma_choice_v4_observers_pilot3,5a5bff49acc75b00017a6009,21,0,-1,-1,"Noise pollution,Reputation of closest school,Quality of heat/AC system,Size of yard,Amount of traffic,Quality of kitchen,Closeness to parks,Year building was built,Size of home","Very Low,Very Good,Very Bad,350 square feet,A Little,Bad,20 min away,2006,1100 square feet","High,Moderate,Very Good,500 square feet,A Lot,Very Good,10 min away,1968,1600 square feet",0,0,16684,2022-06-20 21:04:18,110580
611edfe04f9fc63d5fe3084b,ma_choice_v4_observers_pilot3,611edfe04f9fc63d5fe3084b,7,0,-1,-1,"Noise pollution,Amount of traffic,Closeness to parks,Quality of heat/AC system,Size of yard,Reputation of closest school,Size of home,Year building was built,Quality of kitchen","Low,Very Little,10 min away,Moderate,350 square feet,Very Good,1100 square feet,2010,Good","Very High,A Moderate Amount,30 min away,Very Bad,550 square feet,Moderate,700 square feet,1959,Bad",0,0,16268,2022-06-20 21:04:20,110581
60fd6b02340bf3233276eba9,ma_choice_v4_observers_pilot3,60fd6b02340bf3233276eba9,67,0,-1,-1,"Amount of traffic,Size of home,Noise pollution,Reputation of closest school,Closeness to parks,Quality of kitchen,Quality of heat/AC system,Size of yard,Year building was built","A Lot,1300 square feet,Low,Moderate,15 min away,Moderate,Very Bad,200 square feet,1991","A Little,1000 square feet,Very High,Very Bad,25 min away,Very Bad,Very Good,500 square feet,2015",0,0,7404,2022-06-20 21:04:23,110582
5fc035f6c039c1402117124b,ma_choice_v4_observers_pilot3,5fc035f6c039c1402117124b,4,0,-1,-1,"Year building was built,Quality of heat/AC system,Quality of kitchen,Reputation of closest school,Amount of traffic,Closeness to parks,Size of home,Size of yard,Noise pollution","2012,Very Bad,Good,Very Good,Very Little,15 min away,1200 square feet,200 square feet,Very Low","1985,Good,Bad,Bad,A Moderate Amount,25 min away,700 square feet,550 square feet,Very High",0,0,7472,2022-06-20 21:04:24,110583
5fde9178341f425f8df0ac9d,ma_choice_v4_observers_pilot3,5fde9178341f425f8df0ac9d,42,0,-1,-1,"Year building was built,Quality of kitchen,Size of yard,Noise pollution,Reputation of closest school,Size of home,Quality of heat/AC system,Closeness to parks,Amount of traffic","1987,Good,0 square feet,Very High,Bad,1700 square feet,Moderate,20 min away,A Lot","1959,Very Bad,400 square feet,Very Low,Good,1200 square feet,Very Bad,10 min away,A Little",0,0,7812,2022-06-20 21:04:27,110584
60fd6b02340bf3233276eba9,ma_choice_v4_observers_pilot3,60fd6b02340bf3233276eba9,68,0,-1,-1,"Size of yard,Reputation of closest school,Quality of heat/AC system,Amount of traffic,Quality of kitchen,Closeness to parks,Noise pollution,Size of home,Year building was built","350 square feet,Very Good,Bad,A Moderate Amount,Very Good,10 min away,Low,1300 square feet,1954","500 square feet,Moderate,Very Good,Very Little,Bad,20 min away,High,1600 square feet,2013",0,0,7620,2022-06-20 21:04:31,110585
5fc035f6c039c1402117124b,ma_choice_v4_observers_pilot3,5fc035f6c039c1402117124b,5,0,-1,-1,"Quality of kitchen,Year building was built,Noise pollution,Size of home,Closeness to parks,Size of yard,Reputation of closest school,Quality of heat/AC system,Amount of traffic","Moderate,2015,Very High,1400 square feet,10 min away,400 square feet,Moderate,Bad,A Lot","Very Bad,1974,Very Low,1100 square feet,20 min away,550 square feet,Very Bad,Good,A Little",0,0,8094,2022-06-20 21:04:33,110586
611edfe04f9fc63d5fe3084b,ma_choice_v4_observers_pilot3,611edfe04f9fc63d5fe3084b,8,0,-1,-1,"Size of yard,Quality of heat/AC system,Closeness to parks,Noise pollution,Quality of kitchen,Reputation of closest school,Year building was built,Size of home,Amount of traffic","500 square feet,Bad,10 min away,Very High,Very Bad,Very Bad,2005,1500 square feet,A Moderate Amount","100 square feet,Very Good,30 min away,Moderate,Moderate,Very Good,1982,700 square feet,Very Little",1,1,14356,2022-06-20 21:04:36,110587
5fde9178341f425f8df0ac9d,ma_choice_v4_observers_pilot3,5fde9178341f425f8df0ac9d,43,0,-1,-1,"Year building was built,Quality of kitchen,Quality of heat/AC system,Size of yard,Reputation of closest school,Noise pollution,Amount of traffic,Size of home,Closeness to parks","1981,Very Good,Good,50 square feet,Good,High,A Lot,900 square feet,30 min away","2019,Very Bad,Bad,450 square feet,Very Bad,Low,A Little,1300 square feet,20 min away",0,0,8171,2022-06-20 21:04:36,110588
5a5bff49acc75b00017a6009,ma_choice_v4_observers_pilot3,5a5bff49acc75b00017a6009,22,0,-1,-1,"Reputation of closest school,Year building was built,Size of yard,Closeness to parks,Quality of kitchen,Noise pollution,Quality of heat/AC system,Size of home,Amount of traffic","Good,2010,400 square feet,25 min away,Very Bad,Low,Very Bad,1000 square feet,A Lot","Very Bad,1969,150 square feet,15 min away,Good,High,Moderate,700 square feet,Very Little",0,0,20104,2022-06-20 21:04:39,110589
60fd6b02340bf3233276eba9,ma_choice_v4_observers_pilot3,60fd6b02340bf3233276eba9,69,0,-1,-1,"Size of yard,Quality of heat/AC system,Closeness to parks,Size of home,Reputation of closest school,Quality of kitchen,Year building was built,Amount of traffic,Noise pollution","600 square feet,Good,15 min away,600 square feet,Moderate,Moderate,1968,Very Little,High","0 square feet,Bad,25 min away,1100 square feet,Very Bad,Very Bad,2013,A Lot,Low",1,1,7478,2022-06-20 21:04:40,110590
5fc035f6c039c1402117124b,ma_choice_v4_observers_pilot3,5fc035f6c039c1402117124b,6,0,-1,-1,"Reputation of closest school,Noise pollution,Year building was built,Amount of traffic,Quality of kitchen,Size of home,Size of yard,Closeness to parks,Quality of heat/AC system","Moderate,Moderate,1962,Very Little,Moderate,1200 square feet,250 square feet,10 min away,Very Good","Very Good,Very Low,1998,A Moderate Amount,Very Bad,700 square feet,400 square feet,25 min away,Very Bad",1,1,7619,2022-06-20 21:04:41,110591
