subject,version,assignmentId,trial,practice,opt1_id,opt2_id,attributes,opt1_values,opt2_values,choice,orig_choice,rt,stamp,id
6127df52d897b4da6d8ddda8,ma_choice_v4_observers_pilot2,6127df52d897b4da6d8ddda8,0,1,-1,-1,"Quality of kitchen,Quality of heat/AC system,Noise pollution,Amount of traffic,Closeness to parks,Reputation of closest school,Size of home,Size of yard,Year building was built","Bad,Very Bad,High,Very Little,15 min away,Bad,1300 square feet,50 square feet,2012","Good,Very Good,Very Low,A Moderate Amount,25 min away,Good,1100 square feet,400 square feet,1973",1,1,17345,2022-06-17 18:55:21,104422
6127df52d897b4da6d8ddda8,ma_choice_v4_observers_pilot2,6127df52d897b4da6d8ddda8,1,1,-1,-1,"Closeness to parks,Noise pollution,Quality of heat/AC system,Year building was built,Reputation of closest school,Amount of traffic,Quality of kitchen,Size of home,Size of yard","10 min away,High,Bad,2008,Very Bad,Very Little,Bad,1400 square feet,300 square feet","30 min away,Low,Good,1971,Good,A Lot,Good,1100 square feet,600 square feet",1,1,25642,2022-06-17 18:55:47,104423
6127df52d897b4da6d8ddda8,ma_choice_v4_observers_pilot2,6127df52d897b4da6d8ddda8,2,1,-1,-1,"Reputation of closest school,Size of yard,Size of home,Quality of kitchen,Year building was built,Quality of heat/AC system,Amount of traffic,Closeness to parks,Noise pollution","Moderate,150 square feet,1400 square feet,Moderate,1950,Good,A Lot,15 min away,Very High","Very Good,300 square feet,1600 square feet,Very Good,2009,Bad,Very Little,30 min away,Low",1,0,24521,2022-06-17 18:56:11,104424
6127df52d897b4da6d8ddda8,ma_choice_v4_observers_pilot2,6127df52d897b4da6d8ddda8,3,1,-1,-1,"Year building was built,Noise pollution,Closeness to parks,Size of yard,Quality of kitchen,Amount of traffic,Size of home,Reputation of closest school,Quality of heat/AC system","2005,Very Low,20 min away,450 square feet,Very Bad,Very Little,1800 square feet,Moderate,Moderate","1970,Moderate,30 min away,150 square feet,Moderate,A Lot,1400 square feet,Very Good,Very Bad",0,0,19609,2022-06-17 18:56:32,104425
6127df52d897b4da6d8ddda8,ma_choice_v4_observers_pilot2,6127df52d897b4da6d8ddda8,4,1,-1,-1,"Noise pollution,Size of home,Size of yard,Reputation of closest school,Quality of kitchen,Amount of traffic,Year building was built,Closeness to parks,Quality of heat/AC system","Very High,600 square feet,500 square feet,Good,Very Bad,A Lot,1950,20 min away,Very Good","Very Low,900 square feet,350 square feet,Very Bad,Good,Very Little,1995,10 min away,Moderate",1,0,27901,2022-06-17 18:57:04,104426
6127df52d897b4da6d8ddda8,ma_choice_v4_observers_pilot2,6127df52d897b4da6d8ddda8,5,1,-1,-1,"Quality of heat/AC system,Reputation of closest school,Closeness to parks,Amount of traffic,Size of yard,Size of home,Noise pollution,Year building was built,Quality of kitchen","Moderate,Moderate,25 min away,A Lot,150 square feet,1300 square feet,Low,2016,Good","Very Good,Very Bad,10 min away,A Little,350 square feet,1000 square feet,Very High,1972,Very Bad",0,0,22420,2022-06-17 18:57:24,104427
6127df52d897b4da6d8ddda8,ma_choice_v4_observers_pilot2,6127df52d897b4da6d8ddda8,6,1,-1,-1,"Amount of traffic,Quality of kitchen,Size of home,Size of yard,Reputation of closest school,Noise pollution,Year building was built,Closeness to parks,Quality of heat/AC system","A Lot,Moderate,1100 square feet,450 square feet,Good,Very Low,1974,20 min away,Very Bad","A Little,Very Bad,1500 square feet,200 square feet,Very Bad,Very High,2020,30 min away,Good",1,1,27379,2022-06-17 18:57:53,104428
6127df52d897b4da6d8ddda8,ma_choice_v4_observers_pilot2,6127df52d897b4da6d8ddda8,7,1,-1,-1,"Quality of kitchen,Noise pollution,Reputation of closest school,Closeness to parks,Size of yard,Quality of heat/AC system,Amount of traffic,Size of home,Year building was built","Very Bad,Moderate,Very Bad,15 min away,300 square feet,Moderate,A Lot,1100 square feet,2006","Very Good,Very Low,Moderate,25 min away,500 square feet,Very Good,Very Little,1500 square feet,1955",1,1,13159,2022-06-17 18:58:07,104429
6127df52d897b4da6d8ddda8,ma_choice_v4_observers_pilot2,6127df52d897b4da6d8ddda8,8,1,-1,-1,"Amount of traffic,Size of yard,Size of home,Quality of heat/AC system,Quality of kitchen,Closeness to parks,Reputation of closest school,Noise pollution,Year building was built","A Little,100 square feet,1200 square feet,Very Bad,Moderate,30 min away,Very Bad,Very Low,1974","A Lot,350 square feet,700 square feet,Very Good,Very Bad,10 min away,Good,High,2013",1,1,12234,2022-06-17 18:58:20,104430
62acc04d0a7788636b0e9915,ma_choice_v4_observers_pilot2,62acc04d0a7788636b0e9915,0,1,-1,-1,"Year building was built,Noise pollution,Size of home,Quality of heat/AC system,Reputation of closest school,Size of yard,Amount of traffic,Quality of kitchen,Closeness to parks","1955,Very Low,1500 square feet,Very Good,Moderate,500 square feet,Very Little,Very Good,25 min away","2006,Moderate,1100 square feet,Moderate,Very Bad,300 square feet,A Lot,Very Bad,15 min away",0,0,35784,2022-06-17 18:58:28,104431
6127df52d897b4da6d8ddda8,ma_choice_v4_observers_pilot2,6127df52d897b4da6d8ddda8,9,1,-1,-1,"Amount of traffic,Noise pollution,Size of home,Year building was built,Quality of kitchen,Quality of heat/AC system,Closeness to parks,Reputation of closest school,Size of yard","A Lot,Low,800 square feet,1953,Bad,Very Good,30 min away,Moderate,250 square feet","A Little,High,1700 square feet,1993,Very Good,Moderate,20 min away,Very Good,100 square feet",0,0,9497,2022-06-17 18:58:30,104432
62acc04d0a7788636b0e9915,ma_choice_v4_observers_pilot2,62acc04d0a7788636b0e9915,1,1,-1,-1,"Size of yard,Year building was built,Closeness to parks,Quality of heat/AC system,Size of home,Noise pollution,Reputation of closest school,Quality of kitchen,Amount of traffic","150 square feet,1970,30 min away,Very Bad,1400 square feet,Moderate,Very Good,Moderate,A Lot","450 square feet,2005,20 min away,Moderate,1800 square feet,Very Low,Moderate,Very Bad,Very Little",1,1,40375,2022-06-17 18:59:08,104433
62850d0754941f925e1af397,ma_choice_v4_observers_pilot2,62850d0754941f925e1af397,0,1,-1,-1,"Size of home,Quality of heat/AC system,Amount of traffic,Reputation of closest school,Noise pollution,Year building was built,Quality of kitchen,Size of yard,Closeness to parks","1400 square feet,Bad,Very Little,Very Bad,High,2008,Bad,300 square feet,10 min away","1100 square feet,Good,A Lot,Good,Low,1971,Good,600 square feet,30 min away",1,1,23794,2022-06-17 18:59:30,104434
62acc04d0a7788636b0e9915,ma_choice_v4_observers_pilot2,62acc04d0a7788636b0e9915,2,1,-1,-1,"Reputation of closest school,Size of home,Noise pollution,Closeness to parks,Quality of heat/AC system,Quality of kitchen,Size of yard,Year building was built,Amount of traffic","Very Good,1600 square feet,Low,30 min away,Bad,Very Good,300 square feet,2009,Very Little","Moderate,1400 square feet,Very High,15 min away,Good,Moderate,150 square feet,1950,A Lot",0,0,32283,2022-06-17 18:59:39,104435
62850d0754941f925e1af397,ma_choice_v4_observers_pilot2,62850d0754941f925e1af397,1,1,-1,-1,"Quality of heat/AC system,Reputation of closest school,Year building was built,Amount of traffic,Size of home,Size of yard,Closeness to parks,Noise pollution,Quality of kitchen","Good,Moderate,1950,A Lot,1400 square feet,150 square feet,15 min away,Very High,Moderate","Bad,Very Good,2009,Very Little,1600 square feet,300 square feet,30 min away,Low,Very Good",0,0,25595,2022-06-17 18:59:56,104436
62850d0754941f925e1af397,ma_choice_v4_observers_pilot2,62850d0754941f925e1af397,2,1,-1,-1,"Size of home,Closeness to parks,Year building was built,Reputation of closest school,Quality of heat/AC system,Amount of traffic,Noise pollution,Size of yard,Quality of kitchen","1100 square feet,20 min away,1974,Good,Very Bad,A Lot,Very Low,450 square feet,Moderate","1500 square feet,30 min away,2020,Very Bad,Good,A Little,Very High,200 square feet,Very Bad",1,1,15976,2022-06-17 19:00:13,104437
62850d0754941f925e1af397,ma_choice_v4_observers_pilot2,62850d0754941f925e1af397,3,1,-1,-1,"Quality of heat/AC system,Size of yard,Noise pollution,Closeness to parks,Amount of traffic,Size of home,Quality of kitchen,Year building was built,Reputation of closest school","Moderate,100 square feet,High,20 min away,A Little,1700 square feet,Very Good,1993,Very Good","Very Good,250 square feet,Low,30 min away,A Lot,800 square feet,Bad,1953,Moderate",0,0,15729,2022-06-17 19:00:30,104438
62acc04d0a7788636b0e9915,ma_choice_v4_observers_pilot2,62acc04d0a7788636b0e9915,3,1,-1,-1,"Quality of kitchen,Reputation of closest school,Quality of heat/AC system,Year building was built,Closeness to parks,Size of yard,Amount of traffic,Noise pollution,Size of home","Very Bad,Good,Very Good,2013,10 min away,350 square feet,A Lot,High,700 square feet","Moderate,Very Bad,Very Bad,1974,30 min away,100 square feet,A Little,Very Low,1200 square feet",1,1,52558,2022-06-17 19:00:33,104439
62850d0754941f925e1af397,ma_choice_v4_observers_pilot2,62850d0754941f925e1af397,4,1,-1,-1,"Reputation of closest school,Amount of traffic,Size of home,Closeness to parks,Year building was built,Quality of kitchen,Size of yard,Noise pollution,Quality of heat/AC system","Good,A Lot,600 square feet,20 min away,1950,Very Bad,500 square feet,Very High,Very Good","Very Bad,Very Little,900 square feet,10 min away,1995,Good,350 square feet,Very Low,Moderate",1,1,10324,2022-06-17 19:00:41,104440
6127df52d897b4da6d8ddda8,ma_choice_v4_observers_pilot2,6127df52d897b4da6d8ddda8,0,0,-1,-1,"Reputation of closest school,Noise pollution,Size of yard,Amount of traffic,Quality of heat/AC system,Closeness to parks,Year building was built,Size of home,Quality of kitchen","Very Good,Very Low,450 square feet,A Lot,Good,20 min away,1984,700 square feet,Moderate","Bad,Very High,200 square feet,A Little,Bad,10 min away,2013,1500 square feet,Very Bad",0,0,40060,2022-06-17 19:00:48,104441
62850d0754941f925e1af397,ma_choice_v4_observers_pilot2,62850d0754941f925e1af397,5,1,-1,-1,"Closeness to parks,Quality of heat/AC system,Quality of kitchen,Year building was built,Size of home,Size of yard,Amount of traffic,Noise pollution,Reputation of closest school","25 min away,Moderate,Good,2016,1300 square feet,150 square feet,A Lot,Low,Moderate","10 min away,Very Good,Very Bad,1972,1000 square feet,350 square feet,A Little,Very High,Very Bad",0,0,10107,2022-06-17 19:00:53,104442
6127df52d897b4da6d8ddda8,ma_choice_v4_observers_pilot2,6127df52d897b4da6d8ddda8,1,0,-1,-1,"Amount of traffic,Quality of heat/AC system,Size of yard,Reputation of closest school,Year building was built,Closeness to parks,Size of home,Noise pollution,Quality of kitchen","A Little,Very Good,200 square feet,Good,2004,25 min away,1700 square feet,High,Very Good","A Lot,Moderate,600 square feet,Bad,1961,15 min away,1000 square feet,Very Low,Very Bad",1,1,34837,2022-06-17 19:01:00,104443
62acc04d0a7788636b0e9915,ma_choice_v4_observers_pilot2,62acc04d0a7788636b0e9915,4,1,-1,-1,"Amount of traffic,Quality of heat/AC system,Closeness to parks,Reputation of closest school,Noise pollution,Size of yard,Size of home,Year building was built,Quality of kitchen","Very Little,Very Bad,15 min away,Bad,High,50 square feet,1300 square feet,2012,Bad","A Moderate Amount,Very Good,25 min away,Good,Very Low,400 square feet,1100 square feet,1973,Good",1,1,28081,2022-06-17 19:01:02,104444
6127df52d897b4da6d8ddda8,ma_choice_v4_observers_pilot2,6127df52d897b4da6d8ddda8,2,0,-1,-1,"Year building was built,Reputation of closest school,Size of home,Size of yard,Quality of kitchen,Quality of heat/AC system,Noise pollution,Amount of traffic,Closeness to parks","1956,Very Bad,600 square feet,150 square feet,Very Bad,Very Good,High,A Lot,15 min away","1987,Very Good,1100 square feet,350 square feet,Very Good,Very Bad,Very Low,A Little,30 min away",0,0,12746,2022-06-17 19:01:12,104445
62850d0754941f925e1af397,ma_choice_v4_observers_pilot2,62850d0754941f925e1af397,6,1,-1,-1,"Size of yard,Year building was built,Amount of traffic,Reputation of closest school,Closeness to parks,Noise pollution,Quality of kitchen,Size of home,Quality of heat/AC system","350 square feet,2013,A Lot,Good,10 min away,High,Very Bad,700 square feet,Very Good","100 square feet,1974,A Little,Very Bad,30 min away,Very Low,Moderate,1200 square feet,Very Bad",0,0,19944,2022-06-17 19:01:14,104446
62acc04d0a7788636b0e9915,ma_choice_v4_observers_pilot2,62acc04d0a7788636b0e9915,5,1,-1,-1,"Noise pollution,Size of yard,Closeness to parks,Amount of traffic,Year building was built,Reputation of closest school,Quality of kitchen,Quality of heat/AC system,Size of home","Very Low,350 square feet,10 min away,Very Little,1995,Very Bad,Good,Moderate,900 square feet","Very High,500 square feet,20 min away,A Lot,1950,Good,Very Bad,Very Good,600 square feet",0,0,15277,2022-06-17 19:01:18,104447
6127df52d897b4da6d8ddda8,ma_choice_v4_observers_pilot2,6127df52d897b4da6d8ddda8,3,0,-1,-1,"Quality of kitchen,Quality of heat/AC system,Size of yard,Noise pollution,Reputation of closest school,Size of home,Year building was built,Amount of traffic,Closeness to parks","Good,Very Bad,50 square feet,High,Moderate,1600 square feet,1957,A Little,30 min away","Bad,Very Good,450 square feet,Very Low,Very Good,1400 square feet,1990,A Lot,15 min away",1,1,10541,2022-06-17 19:01:21,104448
62850d0754941f925e1af397,ma_choice_v4_observers_pilot2,62850d0754941f925e1af397,7,1,-1,-1,"Amount of traffic,Reputation of closest school,Noise pollution,Quality of kitchen,Size of home,Year building was built,Closeness to parks,Size of yard,Quality of heat/AC system","A Moderate Amount,Good,Very Low,Good,1100 square feet,1973,25 min away,400 square feet,Very Good","Very Little,Bad,High,Bad,1300 square feet,2012,15 min away,50 square feet,Very Bad",0,0,17704,2022-06-17 19:01:32,104449
6127df52d897b4da6d8ddda8,ma_choice_v4_observers_pilot2,6127df52d897b4da6d8ddda8,4,0,-1,-1,"Amount of traffic,Reputation of closest school,Quality of kitchen,Noise pollution,Year building was built,Size of yard,Quality of heat/AC system,Closeness to parks,Size of home","A Lot,Very Good,Bad,Very Low,2018,50 square feet,Very Bad,10 min away,800 square feet","A Little,Bad,Good,High,1964,300 square feet,Moderate,20 min away,1100 square feet",1,1,14828,2022-06-17 19:01:37,104450
62acc04d0a7788636b0e9915,ma_choice_v4_observers_pilot2,62acc04d0a7788636b0e9915,6,1,-1,-1,"Quality of heat/AC system,Closeness to parks,Noise pollution,Year building was built,Amount of traffic,Size of home,Size of yard,Quality of kitchen,Reputation of closest school","Very Good,10 min away,Very High,1972,A Little,1000 square feet,350 square feet,Very Bad,Very Bad","Moderate,25 min away,Low,2016,A Lot,1300 square feet,150 square feet,Good,Moderate",1,1,22768,2022-06-17 19:01:42,104451
62850d0754941f925e1af397,ma_choice_v4_observers_pilot2,62850d0754941f925e1af397,8,1,-1,-1,"Size of home,Closeness to parks,Amount of traffic,Noise pollution,Year building was built,Size of yard,Reputation of closest school,Quality of kitchen,Quality of heat/AC system","1400 square feet,30 min away,A Lot,Moderate,1970,150 square feet,Very Good,Moderate,Very Bad","1800 square feet,20 min away,Very Little,Very Low,2005,450 square feet,Moderate,Very Bad,Moderate",1,1,13341,2022-06-17 19:01:47,104452
62850d0754941f925e1af397,ma_choice_v4_observers_pilot2,62850d0754941f925e1af397,9,1,-1,-1,"Size of home,Closeness to parks,Year building was built,Amount of traffic,Reputation of closest school,Quality of heat/AC system,Quality of kitchen,Size of yard,Noise pollution","1500 square feet,25 min away,1955,Very Little,Moderate,Very Good,Very Good,500 square feet,Very Low","1100 square feet,15 min away,2006,A Lot,Very Bad,Moderate,Very Bad,300 square feet,Moderate",0,0,10346,2022-06-17 19:01:58,104453
6127df52d897b4da6d8ddda8,ma_choice_v4_observers_pilot2,6127df52d897b4da6d8ddda8,5,0,-1,-1,"Quality of kitchen,Size of yard,Reputation of closest school,Size of home,Quality of heat/AC system,Noise pollution,Year building was built,Amount of traffic,Closeness to parks","Bad,250 square feet,Good,1200 square feet,Moderate,Very High,1954,Very Little,10 min away","Good,0 square feet,Bad,1500 square feet,Very Good,Very Low,1980,A Moderate Amount,20 min away",1,1,12721,2022-06-17 19:01:59,104454
6127df52d897b4da6d8ddda8,ma_choice_v4_observers_pilot2,6127df52d897b4da6d8ddda8,6,0,-1,-1,"Noise pollution,Size of yard,Year building was built,Quality of kitchen,Size of home,Reputation of closest school,Amount of traffic,Quality of heat/AC system,Closeness to parks","Very High,100 square feet,1993,Bad,1500 square feet,Very Bad,Very Little,Good,30 min away","Very Low,300 square feet,1957,Very Good,1300 square feet,Moderate,A Lot,Bad,20 min away",0,0,11817,2022-06-17 19:02:04,104455
62acc04d0a7788636b0e9915,ma_choice_v4_observers_pilot2,62acc04d0a7788636b0e9915,7,1,-1,-1,"Quality of heat/AC system,Size of yard,Size of home,Amount of traffic,Closeness to parks,Noise pollution,Year building was built,Reputation of closest school,Quality of kitchen","Good,200 square feet,1500 square feet,A Little,30 min away,Very High,2020,Very Bad,Very Bad","Very Bad,450 square feet,1100 square feet,A Lot,20 min away,Very Low,1974,Good,Moderate",0,0,38496,2022-06-17 19:02:21,104456
6127df52d897b4da6d8ddda8,ma_choice_v4_observers_pilot2,6127df52d897b4da6d8ddda8,7,0,-1,-1,"Closeness to parks,Noise pollution,Size of yard,Reputation of closest school,Quality of heat/AC system,Quality of kitchen,Amount of traffic,Size of home,Year building was built","25 min away,Very High,400 square feet,Very Bad,Good,Very Bad,A Lot,700 square feet,1993","10 min away,Low,250 square feet,Good,Very Bad,Good,A Little,1000 square feet,1953",0,0,10808,2022-06-17 19:02:23,104457
6127df52d897b4da6d8ddda8,ma_choice_v4_observers_pilot2,6127df52d897b4da6d8ddda8,8,0,-1,-1,"Year building was built,Size of yard,Quality of kitchen,Size of home,Reputation of closest school,Amount of traffic,Closeness to parks,Quality of heat/AC system,Noise pollution","2000,350 square feet,Very Bad,1200 square feet,Good,A Little,30 min away,Bad,Low","1964,200 square feet,Very Good,1600 square feet,Bad,A Lot,20 min away,Good,Very High",1,1,13217,2022-06-17 19:02:29,104458
6127df52d897b4da6d8ddda8,ma_choice_v4_observers_pilot2,6127df52d897b4da6d8ddda8,9,0,-1,-1,"Size of home,Closeness to parks,Year building was built,Amount of traffic,Reputation of closest school,Quality of kitchen,Noise pollution,Size of yard,Quality of heat/AC system","1800 square feet,15 min away,1965,A Little,Moderate,Moderate,Very High,400 square feet,Very Bad","600 square feet,30 min away,1986,A Lot,Very Good,Very Good,Very Low,50 square feet,Very Good",1,1,18112,2022-06-17 19:02:49,104459
62850d0754941f925e1af397,ma_choice_v4_observers_pilot2,62850d0754941f925e1af397,0,0,-1,-1,"Size of yard,Year building was built,Quality of kitchen,Size of home,Noise pollution,Amount of traffic,Reputation of closest school,Quality of heat/AC system,Closeness to parks","50 square feet,1988,Very Good,1100 square feet,Moderate,A Moderate Amount,Good,Good,10 min away","600 square feet,2016,Moderate,900 square feet,Very High,Very Little,Very Bad,Very Bad,20 min away",0,0,16638,2022-06-17 19:03:03,104460
62acc04d0a7788636b0e9915,ma_choice_v4_observers_pilot2,62acc04d0a7788636b0e9915,8,1,-1,-1,"Size of home,Size of yard,Quality of heat/AC system,Noise pollution,Year building was built,Quality of kitchen,Amount of traffic,Reputation of closest school,Closeness to parks","800 square feet,250 square feet,Very Good,Low,1953,Bad,A Lot,Moderate,30 min away","1700 square feet,100 square feet,Moderate,High,1993,Very Good,A Little,Very Good,20 min away",1,1,42861,2022-06-17 19:03:05,104461
6127df52d897b4da6d8ddda8,ma_choice_v4_observers_pilot2,6127df52d897b4da6d8ddda8,10,0,-1,-1,"Amount of traffic,Size of home,Size of yard,Closeness to parks,Noise pollution,Quality of heat/AC system,Year building was built,Quality of kitchen,Reputation of closest school","A Lot,1600 square feet,300 square feet,25 min away,Very High,Moderate,2010,Moderate,Bad","A Little,1000 square feet,100 square feet,10 min away,Moderate,Very Bad,1990,Very Bad,Very Good",0,0,30518,2022-06-17 19:03:20,104462
62850d0754941f925e1af397,ma_choice_v4_observers_pilot2,62850d0754941f925e1af397,1,0,-1,-1,"Quality of heat/AC system,Noise pollution,Reputation of closest school,Size of home,Year building was built,Quality of kitchen,Amount of traffic,Closeness to parks,Size of yard","Moderate,Very Low,Good,1500 square feet,1997,Moderate,A Little,25 min away,250 square feet","Very Bad,High,Very Bad,800 square feet,1963,Very Good,A Lot,15 min away,500 square feet",0,0,18008,2022-06-17 19:03:22,104463
62850d0754941f925e1af397,ma_choice_v4_observers_pilot2,62850d0754941f925e1af397,2,0,-1,-1,"Size of home,Closeness to parks,Amount of traffic,Year building was built,Size of yard,Quality of heat/AC system,Reputation of closest school,Quality of kitchen,Noise pollution","1200 square feet,25 min away,A Moderate Amount,1979,50 square feet,Very Bad,Bad,Very Good,Very Low","700 square feet,10 min away,Very Little,1950,450 square feet,Good,Good,Bad,High",0,0,10107,2022-06-17 19:03:33,104464
6127df52d897b4da6d8ddda8,ma_choice_v4_observers_pilot2,6127df52d897b4da6d8ddda8,11,0,-1,-1,"Year building was built,Reputation of closest school,Quality of heat/AC system,Size of yard,Quality of kitchen,Closeness to parks,Noise pollution,Amount of traffic,Size of home","1977,Very Good,Very Bad,250 square feet,Very Bad,25 min away,Low,A Little,1200 square feet","2007,Bad,Good,0 square feet,Very Good,15 min away,Very High,A Lot,1700 square feet",1,1,18384,2022-06-17 19:03:39,104465
62850d0754941f925e1af397,ma_choice_v4_observers_pilot2,62850d0754941f925e1af397,3,0,-1,-1,"Quality of kitchen,Year building was built,Closeness to parks,Size of home,Size of yard,Amount of traffic,Quality of heat/AC system,Reputation of closest school,Noise pollution","Bad,2012,30 min away,1300 square feet,550 square feet,Very Little,Very Bad,Bad,High","Very Good,1987,10 min away,1000 square feet,100 square feet,A Lot,Moderate,Good,Low",0,0,10421,2022-06-17 19:03:45,104466
62acc04d0a7788636b0e9915,ma_choice_v4_observers_pilot2,62acc04d0a7788636b0e9915,9,1,-1,-1,"Amount of traffic,Size of home,Quality of heat/AC system,Size of yard,Noise pollution,Reputation of closest school,Year building was built,Closeness to parks,Quality of kitchen","Very Little,1400 square feet,Bad,300 square feet,High,Very Bad,2008,10 min away,Bad","A Lot,1100 square feet,Good,600 square feet,Low,Good,1971,30 min away,Good",1,1,45881,2022-06-17 19:03:52,104467
6127df52d897b4da6d8ddda8,ma_choice_v4_observers_pilot2,6127df52d897b4da6d8ddda8,12,0,-1,-1,"Quality of kitchen,Closeness to parks,Size of yard,Quality of heat/AC system,Amount of traffic,Reputation of closest school,Year building was built,Size of home,Noise pollution","Moderate,15 min away,0 square feet,Very Good,Very Little,Bad,1987,1600 square feet,Very High","Very Good,25 min away,450 square feet,Very Bad,A Moderate Amount,Good,1953,1300 square feet,Very Low",0,0,14125,2022-06-17 19:03:54,104468
62850d0754941f925e1af397,ma_choice_v4_observers_pilot2,62850d0754941f925e1af397,4,0,-1,-1,"Amount of traffic,Noise pollution,Size of yard,Quality of kitchen,Reputation of closest school,Size of home,Quality of heat/AC system,Closeness to parks,Year building was built","Very Little,Very High,600 square feet,Moderate,Good,1100 square feet,Very Bad,25 min away,1990","A Moderate Amount,Low,150 square feet,Very Bad,Very Bad,1600 square feet,Moderate,10 min away,1956",1,1,8958,2022-06-17 19:03:55,104469
62850d0754941f925e1af397,ma_choice_v4_observers_pilot2,62850d0754941f925e1af397,5,0,-1,-1,"Quality of heat/AC system,Size of home,Quality of kitchen,Noise pollution,Reputation of closest school,Size of yard,Closeness to parks,Year building was built,Amount of traffic","Very Good,600 square feet,Very Bad,High,Very Bad,150 square feet,15 min away,1956,A Lot","Very Bad,1100 square feet,Very Good,Very Low,Very Good,350 square feet,30 min away,1987,A Little",1,1,9234,2022-06-17 19:04:05,104470
6127df52d897b4da6d8ddda8,ma_choice_v4_observers_pilot2,6127df52d897b4da6d8ddda8,13,0,-1,-1,"Closeness to parks,Size of yard,Size of home,Reputation of closest school,Amount of traffic,Year building was built,Noise pollution,Quality of kitchen,Quality of heat/AC system","20 min away,450 square feet,1400 square feet,Good,A Moderate Amount,2008,Very High,Moderate,Good","10 min away,100 square feet,1000 square feet,Bad,Very Little,1954,Very Low,Very Bad,Bad",0,0,16228,2022-06-17 19:04:11,104471
62850d0754941f925e1af397,ma_choice_v4_observers_pilot2,62850d0754941f925e1af397,6,0,-1,-1,"Closeness to parks,Size of yard,Reputation of closest school,Quality of heat/AC system,Amount of traffic,Noise pollution,Quality of kitchen,Year building was built,Size of home","25 min away,50 square feet,Moderate,Bad,A Lot,Moderate,Good,2007,1100 square feet","15 min away,550 square feet,Very Bad,Good,Very Little,Very Low,Very Bad,1985,700 square feet",0,0,10132,2022-06-17 19:04:16,104472
62850d0754941f925e1af397,ma_choice_v4_observers_pilot2,62850d0754941f925e1af397,7,0,-1,-1,"Size of yard,Amount of traffic,Year building was built,Reputation of closest school,Size of home,Noise pollution,Quality of kitchen,Quality of heat/AC system,Closeness to parks","100 square feet,A Little,1954,Very Bad,1000 square feet,Low,Moderate,Moderate,15 min away","450 square feet,A Lot,2016,Very Good,600 square feet,High,Very Good,Very Good,30 min away",0,0,8987,2022-06-17 19:04:26,104473
62850d0754941f925e1af397,ma_choice_v4_observers_pilot2,62850d0754941f925e1af397,8,0,-1,-1,"Size of home,Reputation of closest school,Size of yard,Year building was built,Closeness to parks,Quality of heat/AC system,Quality of kitchen,Noise pollution,Amount of traffic","1800 square feet,Bad,400 square feet,1990,30 min away,Good,Bad,Very Low,A Lot","800 square feet,Good,100 square feet,1965,20 min away,Bad,Very Good,Very High,Very Little",0,0,8583,2022-06-17 19:04:36,104474
62850d0754941f925e1af397,ma_choice_v4_observers_pilot2,62850d0754941f925e1af397,9,0,-1,-1,"Quality of kitchen,Noise pollution,Closeness to parks,Size of yard,Amount of traffic,Year building was built,Quality of heat/AC system,Reputation of closest school,Size of home","Very Good,Very Low,20 min away,300 square feet,A Lot,1957,Bad,Moderate,1300 square feet","Bad,Very High,30 min away,100 square feet,Very Little,1993,Good,Very Bad,1500 square feet",1,1,10041,2022-06-17 19:04:47,104475
6127df52d897b4da6d8ddda8,ma_choice_v4_observers_pilot2,6127df52d897b4da6d8ddda8,14,0,-1,-1,"Noise pollution,Closeness to parks,Amount of traffic,Size of home,Size of yard,Quality of heat/AC system,Reputation of closest school,Year building was built,Quality of kitchen","Low,10 min away,Very Little,800 square feet,0 square feet,Very Bad,Moderate,1999,Moderate","Very High,30 min away,A Moderate Amount,1300 square feet,350 square feet,Good,Very Good,1957,Very Good",1,1,40516,2022-06-17 19:04:53,104476
62850d0754941f925e1af397,ma_choice_v4_observers_pilot2,62850d0754941f925e1af397,10,0,-1,-1,"Size of home,Noise pollution,Amount of traffic,Size of yard,Quality of kitchen,Quality of heat/AC system,Year building was built,Reputation of closest school,Closeness to parks","1800 square feet,Very Low,Very Little,50 square feet,Moderate,Very Good,1958,Moderate,10 min away","600 square feet,High,A Moderate Amount,300 square feet,Very Good,Moderate,2008,Very Good,20 min away",0,0,8419,2022-06-17 19:04:56,104477
62850d0754941f925e1af397,ma_choice_v4_observers_pilot2,62850d0754941f925e1af397,11,0,-1,-1,"Quality of kitchen,Size of home,Amount of traffic,Closeness to parks,Quality of heat/AC system,Reputation of closest school,Size of yard,Year building was built,Noise pollution","Very Good,600 square feet,A Little,30 min away,Very Bad,Moderate,600 square feet,1987,Very Low","Moderate,800 square feet,A Lot,15 min away,Good,Very Bad,350 square feet,2019,Moderate",1,1,11756,2022-06-17 19:05:09,104478
6127df52d897b4da6d8ddda8,ma_choice_v4_observers_pilot2,6127df52d897b4da6d8ddda8,15,0,-1,-1,"Reputation of closest school,Size of yard,Noise pollution,Quality of kitchen,Quality of heat/AC system,Amount of traffic,Year building was built,Closeness to parks,Size of home","Bad,50 square feet,High,Moderate,Moderate,Very Little,2018,30 min away,1200 square feet","Good,550 square feet,Very Low,Very Bad,Very Bad,A Moderate Amount,1994,15 min away,1700 square feet",0,0,16726,2022-06-17 19:05:10,104479
62850d0754941f925e1af397,ma_choice_v4_observers_pilot2,62850d0754941f925e1af397,12,0,-1,-1,"Size of yard,Amount of traffic,Reputation of closest school,Year building was built,Quality of heat/AC system,Size of home,Noise pollution,Quality of kitchen,Closeness to parks","100 square feet,Very Little,Bad,1951,Moderate,1100 square feet,Very Low,Very Bad,20 min away","300 square feet,A Moderate Amount,Good,1989,Very Good,1700 square feet,Moderate,Very Good,10 min away",1,1,8435,2022-06-17 19:05:18,104480
62850d0754941f925e1af397,ma_choice_v4_observers_pilot2,62850d0754941f925e1af397,13,0,-1,-1,"Reputation of closest school,Noise pollution,Quality of kitchen,Size of home,Quality of heat/AC system,Closeness to parks,Amount of traffic,Size of yard,Year building was built","Bad,Very High,Bad,700 square feet,Good,25 min away,A Moderate Amount,550 square feet,1985","Very Good,Very Low,Good,1200 square feet,Very Bad,15 min away,Very Little,200 square feet,2012",1,1,8719,2022-06-17 19:05:28,104481
6127df52d897b4da6d8ddda8,ma_choice_v4_observers_pilot2,6127df52d897b4da6d8ddda8,16,0,-1,-1,"Year building was built,Reputation of closest school,Size of home,Size of yard,Noise pollution,Quality of kitchen,Amount of traffic,Quality of heat/AC system,Closeness to parks","1982,Very Good,700 square feet,100 square feet,Moderate,Moderate,Very Little,Very Good,30 min away","2005,Very Bad,1500 square feet,500 square feet,Very High,Very Bad,A Moderate Amount,Bad,10 min away",0,0,21263,2022-06-17 19:05:33,104482
62850d0754941f925e1af397,ma_choice_v4_observers_pilot2,62850d0754941f925e1af397,14,0,-1,-1,"Noise pollution,Year building was built,Size of home,Quality of heat/AC system,Closeness to parks,Amount of traffic,Size of yard,Quality of kitchen,Reputation of closest school","Moderate,1978,1600 square feet,Very Good,15 min away,A Moderate Amount,550 square feet,Bad,Very Good","Very Low,2011,1000 square feet,Bad,25 min away,Very Little,50 square feet,Good,Very Bad",0,0,8294,2022-06-17 19:05:37,104483
6127df52d897b4da6d8ddda8,ma_choice_v4_observers_pilot2,6127df52d897b4da6d8ddda8,17,0,-1,-1,"Quality of kitchen,Closeness to parks,Noise pollution,Quality of heat/AC system,Size of home,Size of yard,Year building was built,Reputation of closest school,Amount of traffic","Good,15 min away,Very Low,Very Bad,1200 square feet,200 square feet,2012,Very Good,Very Little","Bad,25 min away,Very High,Good,700 square feet,550 square feet,1985,Bad,A Moderate Amount",1,1,17198,2022-06-17 19:05:51,104484
62850d0754941f925e1af397,ma_choice_v4_observers_pilot2,62850d0754941f925e1af397,15,0,-1,-1,"Year building was built,Size of home,Size of yard,Closeness to parks,Quality of kitchen,Quality of heat/AC system,Amount of traffic,Noise pollution,Reputation of closest school","1957,1600 square feet,50 square feet,30 min away,Good,Very Bad,A Little,High,Moderate","1990,1400 square feet,450 square feet,15 min away,Bad,Very Good,A Lot,Very Low,Very Good",1,1,21716,2022-06-17 19:06:00,104485
6127df52d897b4da6d8ddda8,ma_choice_v4_observers_pilot2,6127df52d897b4da6d8ddda8,18,0,-1,-1,"Quality of heat/AC system,Reputation of closest school,Year building was built,Size of yard,Noise pollution,Quality of kitchen,Closeness to parks,Size of home,Amount of traffic","Moderate,Very Bad,1992,400 square feet,Moderate,Good,20 min away,1700 square feet,A Lot","Very Bad,Moderate,1950,200 square feet,Very High,Very Bad,10 min away,1200 square feet,A Little",0,0,22390,2022-06-17 19:06:14,104486
62850d0754941f925e1af397,ma_choice_v4_observers_pilot2,62850d0754941f925e1af397,16,0,-1,-1,"Closeness to parks,Year building was built,Amount of traffic,Quality of kitchen,Quality of heat/AC system,Reputation of closest school,Size of home,Size of yard,Noise pollution","25 min away,2016,Very Little,Very Good,Very Good,Moderate,1100 square feet,50 square feet,Low","10 min away,1960,A Moderate Amount,Moderate,Moderate,Very Bad,700 square feet,300 square feet,High",0,0,15708,2022-06-17 19:06:17,104487
62850d0754941f925e1af397,ma_choice_v4_observers_pilot2,62850d0754941f925e1af397,17,0,-1,-1,"Quality of heat/AC system,Reputation of closest school,Size of home,Amount of traffic,Quality of kitchen,Size of yard,Year building was built,Closeness to parks,Noise pollution","Bad,Good,1300 square feet,Very Little,Very Bad,550 square feet,1999,30 min away,Very Low","Very Good,Bad,700 square feet,A Lot,Moderate,200 square feet,1970,15 min away,Moderate",0,0,10594,2022-06-17 19:06:28,104488
62850d0754941f925e1af397,ma_choice_v4_observers_pilot2,62850d0754941f925e1af397,18,0,-1,-1,"Amount of traffic,Reputation of closest school,Quality of heat/AC system,Quality of kitchen,Size of yard,Noise pollution,Year building was built,Closeness to parks,Size of home","A Lot,Very Good,Good,Very Bad,150 square feet,Very High,1974,25 min away,1500 square feet","A Little,Bad,Very Bad,Very Good,400 square feet,Moderate,2016,10 min away,1100 square feet",0,0,14006,2022-06-17 19:06:43,104489
6127df52d897b4da6d8ddda8,ma_choice_v4_observers_pilot2,6127df52d897b4da6d8ddda8,19,0,-1,-1,"Reputation of closest school,Quality of heat/AC system,Amount of traffic,Size of yard,Year building was built,Quality of kitchen,Noise pollution,Closeness to parks,Size of home","Moderate,Very Good,Very Little,50 square feet,1958,Moderate,Very Low,10 min away,1800 square feet","Very Good,Moderate,A Moderate Amount,300 square feet,2008,Very Good,High,20 min away,600 square feet",0,0,32793,2022-06-17 19:06:48,104490
62850d0754941f925e1af397,ma_choice_v4_observers_pilot2,62850d0754941f925e1af397,19,0,-1,-1,"Closeness to parks,Size of home,Quality of heat/AC system,Quality of kitchen,Reputation of closest school,Size of yard,Year building was built,Amount of traffic,Noise pollution","10 min away,700 square feet,Very Bad,Very Good,Good,350 square feet,1971,Very Little,Very Low","20 min away,1200 square feet,Moderate,Bad,Bad,600 square feet,2000,A Moderate Amount,High",1,1,11076,2022-06-17 19:06:55,104491
6127df52d897b4da6d8ddda8,ma_choice_v4_observers_pilot2,6127df52d897b4da6d8ddda8,20,0,-1,-1,"Size of yard,Size of home,Reputation of closest school,Quality of heat/AC system,Amount of traffic,Quality of kitchen,Year building was built,Noise pollution,Closeness to parks","400 square feet,1300 square feet,Very Good,Very Good,A Lot,Moderate,1971,Low,30 min away","100 square feet,900 square feet,Bad,Very Bad,A Little,Very Good,1950,High,20 min away",0,0,15108,2022-06-17 19:07:04,104492
62850d0754941f925e1af397,ma_choice_v4_observers_pilot2,62850d0754941f925e1af397,20,0,-1,-1,"Amount of traffic,Size of home,Quality of heat/AC system,Year building was built,Closeness to parks,Noise pollution,Size of yard,Reputation of closest school,Quality of kitchen","A Lot,1600 square feet,Moderate,2010,25 min away,Very High,300 square feet,Bad,Moderate","A Little,1000 square feet,Very Bad,1990,10 min away,Moderate,100 square feet,Very Good,Very Bad",0,0,11364,2022-06-17 19:07:08,104493
6127df52d897b4da6d8ddda8,ma_choice_v4_observers_pilot2,6127df52d897b4da6d8ddda8,21,0,-1,-1,"Reputation of closest school,Closeness to parks,Noise pollution,Amount of traffic,Quality of heat/AC system,Year building was built,Quality of kitchen,Size of home,Size of yard","Moderate,15 min away,Low,A Lot,Moderate,2006,Very Bad,1400 square feet,300 square feet","Very Good,30 min away,Very High,Very Little,Very Good,1951,Good,1100 square feet,100 square feet",0,0,9378,2022-06-17 19:07:15,104494
62850d0754941f925e1af397,ma_choice_v4_observers_pilot2,62850d0754941f925e1af397,21,0,-1,-1,"Size of home,Quality of heat/AC system,Reputation of closest school,Year building was built,Closeness to parks,Noise pollution,Size of yard,Amount of traffic,Quality of kitchen","1100 square feet,Good,Very Bad,1974,20 min away,Very Low,550 square feet,A Little,Very Bad","1400 square feet,Bad,Moderate,2015,10 min away,Very High,400 square feet,A Lot,Moderate",0,0,17278,2022-06-17 19:07:26,104495
62acc04d0a7788636b0e9915,ma_choice_v4_observers_pilot2,62acc04d0a7788636b0e9915,0,0,-1,-1,"Closeness to parks,Size of home,Reputation of closest school,Amount of traffic,Quality of heat/AC system,Year building was built,Noise pollution,Size of yard,Quality of kitchen","15 min away,1200 square feet,Very Good,A Little,Very Good,2009,Moderate,50 square feet,Very Good","30 min away,1500 square feet,Bad,A Lot,Very Bad,1964,Very High,450 square feet,Very Bad",0,0,126789,2022-06-17 19:07:35,104496
6127df52d897b4da6d8ddda8,ma_choice_v4_observers_pilot2,6127df52d897b4da6d8ddda8,22,0,-1,-1,"Closeness to parks,Quality of heat/AC system,Reputation of closest school,Quality of kitchen,Noise pollution,Amount of traffic,Year building was built,Size of yard,Size of home","10 min away,Very Bad,Bad,Moderate,High,A Moderate Amount,2003,150 square feet,900 square feet","20 min away,Moderate,Good,Very Good,Low,Very Little,1982,350 square feet,1500 square feet",1,1,21046,2022-06-17 19:07:37,104497
62850d0754941f925e1af397,ma_choice_v4_observers_pilot2,62850d0754941f925e1af397,22,0,-1,-1,"Reputation of closest school,Size of yard,Year building was built,Amount of traffic,Noise pollution,Closeness to parks,Quality of heat/AC system,Size of home,Quality of kitchen","Bad,150 square feet,2003,A Moderate Amount,High,10 min away,Very Bad,900 square feet,Moderate","Good,350 square feet,1982,Very Little,Low,20 min away,Moderate,1500 square feet,Very Good",1,1,10158,2022-06-17 19:07:37,104498
6127df52d897b4da6d8ddda8,ma_choice_v4_observers_pilot2,6127df52d897b4da6d8ddda8,23,0,-1,-1,"Noise pollution,Quality of heat/AC system,Size of home,Reputation of closest school,Closeness to parks,Quality of kitchen,Size of yard,Year building was built,Amount of traffic","Very High,Moderate,600 square feet,Very Bad,15 min away,Moderate,250 square feet,1990,A Lot","Low,Very Bad,1400 square feet,Moderate,25 min away,Very Bad,50 square feet,1969,A Little",0,0,9745,2022-06-17 19:07:47,104499
62850d0754941f925e1af397,ma_choice_v4_observers_pilot2,62850d0754941f925e1af397,23,0,-1,-1,"Quality of heat/AC system,Closeness to parks,Noise pollution,Size of home,Size of yard,Year building was built,Amount of traffic,Quality of kitchen,Reputation of closest school","Good,20 min away,Very Low,1000 square feet,250 square feet,2004,Very Little,Very Bad,Good","Bad,30 min away,Very High,1700 square feet,450 square feet,1959,A Moderate Amount,Good,Bad",1,1,9418,2022-06-17 19:07:48,104500
62850d0754941f925e1af397,ma_choice_v4_observers_pilot2,62850d0754941f925e1af397,24,0,-1,-1,"Amount of traffic,Closeness to parks,Size of yard,Size of home,Noise pollution,Year building was built,Reputation of closest school,Quality of kitchen,Quality of heat/AC system","A Moderate Amount,25 min away,450 square feet,1300 square feet,Very Low,1953,Good,Very Good,Very Bad","Very Little,15 min away,0 square feet,1600 square feet,Very High,1987,Bad,Moderate,Very Good",1,1,10731,2022-06-17 19:07:59,104501
6127df52d897b4da6d8ddda8,ma_choice_v4_observers_pilot2,6127df52d897b4da6d8ddda8,24,0,-1,-1,"Reputation of closest school,Quality of heat/AC system,Noise pollution,Quality of kitchen,Amount of traffic,Closeness to parks,Size of home,Size of yard,Year building was built","Good,Good,High,Very Good,A Lot,30 min away,900 square feet,50 square feet,1981","Very Bad,Bad,Low,Very Bad,A Little,20 min away,1300 square feet,450 square feet,2019",0,0,12699,2022-06-17 19:08:01,104502
62850d0754941f925e1af397,ma_choice_v4_observers_pilot2,62850d0754941f925e1af397,25,0,-1,-1,"Size of yard,Noise pollution,Size of home,Reputation of closest school,Quality of heat/AC system,Quality of kitchen,Year building was built,Closeness to parks,Amount of traffic","150 square feet,High,1500 square feet,Moderate,Very Good,Very Bad,1951,20 min away,A Moderate Amount","450 square feet,Low,1300 square feet,Very Bad,Bad,Very Good,2018,30 min away,Very Little",0,0,9798,2022-06-17 19:08:10,104503
6127df52d897b4da6d8ddda8,ma_choice_v4_observers_pilot2,6127df52d897b4da6d8ddda8,25,0,-1,-1,"Amount of traffic,Quality of kitchen,Size of yard,Size of home,Reputation of closest school,Closeness to parks,Year building was built,Noise pollution,Quality of heat/AC system","A Lot,Very Bad,100 square feet,1700 square feet,Moderate,25 min away,1950,High,Very Good","A Little,Moderate,300 square feet,900 square feet,Very Bad,10 min away,1988,Low,Bad",0,0,9671,2022-06-17 19:08:12,104504
62850d0754941f925e1af397,ma_choice_v4_observers_pilot2,62850d0754941f925e1af397,26,0,-1,-1,"Reputation of closest school,Quality of heat/AC system,Size of home,Quality of kitchen,Size of yard,Year building was built,Noise pollution,Amount of traffic,Closeness to parks","Good,Very Good,800 square feet,Good,500 square feet,2014,Low,A Lot,25 min away","Very Bad,Moderate,1500 square feet,Very Bad,250 square feet,1990,Very High,Very Little,15 min away",1,1,10623,2022-06-17 19:08:22,104505
6127df52d897b4da6d8ddda8,ma_choice_v4_observers_pilot2,6127df52d897b4da6d8ddda8,26,0,-1,-1,"Reputation of closest school,Noise pollution,Quality of heat/AC system,Size of yard,Quality of kitchen,Year building was built,Closeness to parks,Size of home,Amount of traffic","Very Bad,Low,Moderate,100 square feet,Moderate,1954,15 min away,1000 square feet,A Little","Very Good,High,Very Good,450 square feet,Very Good,2016,30 min away,600 square feet,A Lot",0,0,10677,2022-06-17 19:08:23,104506
6127df52d897b4da6d8ddda8,ma_choice_v4_observers_pilot2,6127df52d897b4da6d8ddda8,27,0,-1,-1,"Closeness to parks,Reputation of closest school,Size of home,Noise pollution,Quality of heat/AC system,Year building was built,Size of yard,Quality of kitchen,Amount of traffic","25 min away,Moderate,1100 square feet,Moderate,Bad,2007,50 square feet,Good,A Lot","15 min away,Very Bad,700 square feet,Very Low,Good,1985,550 square feet,Very Bad,Very Little",1,1,8229,2022-06-17 19:08:33,104507
6127df52d897b4da6d8ddda8,ma_choice_v4_observers_pilot2,6127df52d897b4da6d8ddda8,28,0,-1,-1,"Amount of traffic,Year building was built,Reputation of closest school,Size of yard,Quality of heat/AC system,Noise pollution,Size of home,Quality of kitchen,Closeness to parks","A Lot,1958,Bad,450 square feet,Bad,High,1000 square feet,Very Good,10 min away","Very Little,1978,Good,200 square feet,Very Good,Low,1300 square feet,Moderate,30 min away",1,1,7714,2022-06-17 19:08:41,104508
62850d0754941f925e1af397,ma_choice_v4_observers_pilot2,62850d0754941f925e1af397,27,0,-1,-1,"Noise pollution,Amount of traffic,Quality of kitchen,Quality of heat/AC system,Closeness to parks,Size of home,Reputation of closest school,Year building was built,Size of yard","Very Low,A Lot,Very Bad,Good,10 min away,1200 square feet,Bad,1951,350 square feet","Moderate,A Little,Very Good,Very Bad,20 min away,1700 square feet,Good,1980,150 square feet",0,0,24429,2022-06-17 19:08:47,104509
6127df52d897b4da6d8ddda8,ma_choice_v4_observers_pilot2,6127df52d897b4da6d8ddda8,29,0,-1,-1,"Noise pollution,Size of home,Quality of heat/AC system,Size of yard,Reputation of closest school,Quality of kitchen,Year building was built,Amount of traffic,Closeness to parks","Very High,1700 square feet,Bad,400 square feet,Very Bad,Bad,1950,A Lot,15 min away","Moderate,1000 square feet,Very Good,200 square feet,Moderate,Good,1970,A Little,25 min away",1,1,13957,2022-06-17 19:08:57,104510
62850d0754941f925e1af397,ma_choice_v4_observers_pilot2,62850d0754941f925e1af397,28,0,-1,-1,"Year building was built,Size of yard,Amount of traffic,Quality of kitchen,Closeness to parks,Noise pollution,Reputation of closest school,Size of home,Quality of heat/AC system","1954,100 square feet,Very Little,Very Bad,10 min away,Very Low,Bad,1000 square feet,Bad","2008,450 square feet,A Moderate Amount,Moderate,20 min away,Very High,Good,1400 square feet,Good",1,1,8710,2022-06-17 19:08:57,104511
6234c8127a4c8c2c2c0ac967,ma_choice_v4_observers_pilot2,6234c8127a4c8c2c2c0ac967,0,1,-1,-1,"Closeness to parks,Amount of traffic,Size of home,Reputation of closest school,Year building was built,Quality of heat/AC system,Size of yard,Quality of kitchen,Noise pollution","10 min away,A Little,1000 square feet,Very Bad,1972,Very Good,350 square feet,Very Bad,Very High","25 min away,A Lot,1300 square feet,Moderate,2016,Moderate,150 square feet,Good,Low",0,0,18333,2022-06-17 19:09:04,104512
62850d0754941f925e1af397,ma_choice_v4_observers_pilot2,62850d0754941f925e1af397,29,0,-1,-1,"Noise pollution,Quality of heat/AC system,Closeness to parks,Reputation of closest school,Year building was built,Size of home,Quality of kitchen,Size of yard,Amount of traffic","Low,Very Good,10 min away,Bad,1983,1000 square feet,Very Bad,250 square feet,A Moderate Amount","High,Moderate,25 min away,Good,2012,1500 square feet,Moderate,550 square feet,Very Little",0,0,16080,2022-06-17 19:09:14,104513
6127df52d897b4da6d8ddda8,ma_choice_v4_observers_pilot2,6127df52d897b4da6d8ddda8,30,0,-1,-1,"Quality of heat/AC system,Closeness to parks,Amount of traffic,Noise pollution,Year building was built,Reputation of closest school,Size of yard,Quality of kitchen,Size of home","Very Bad,10 min away,A Lot,High,1957,Very Good,50 square feet,Very Good,1100 square feet","Good,30 min away,A Little,Low,2014,Moderate,450 square feet,Bad,1400 square feet",1,1,25586,2022-06-17 19:09:23,104514
6234c8127a4c8c2c2c0ac967,ma_choice_v4_observers_pilot2,6234c8127a4c8c2c2c0ac967,1,1,-1,-1,"Quality of kitchen,Amount of traffic,Reputation of closest school,Year building was built,Closeness to parks,Size of yard,Size of home,Noise pollution,Quality of heat/AC system","Very Bad,A Little,Very Bad,2020,30 min away,200 square feet,1500 square feet,Very High,Good","Moderate,A Lot,Good,1974,20 min away,450 square feet,1100 square feet,Very Low,Very Bad",1,1,19983,2022-06-17 19:09:25,104515
62850d0754941f925e1af397,ma_choice_v4_observers_pilot2,62850d0754941f925e1af397,30,0,-1,-1,"Closeness to parks,Size of home,Noise pollution,Quality of heat/AC system,Reputation of closest school,Size of yard,Amount of traffic,Quality of kitchen,Year building was built","20 min away,1600 square feet,Moderate,Bad,Very Good,50 square feet,A Moderate Amount,Very Bad,1951","30 min away,900 square feet,Very Low,Very Good,Bad,300 square feet,Very Little,Moderate,2000",0,0,14288,2022-06-17 19:09:29,104516
62850d0754941f925e1af397,ma_choice_v4_observers_pilot2,62850d0754941f925e1af397,31,0,-1,-1,"Quality of heat/AC system,Closeness to parks,Noise pollution,Size of yard,Quality of kitchen,Amount of traffic,Reputation of closest school,Year building was built,Size of home","Very Bad,30 min away,Low,100 square feet,Good,A Lot,Very Good,2006,1100 square feet","Very Good,10 min away,Very High,550 square feet,Very Bad,A Little,Moderate,1957,1400 square feet",1,1,12140,2022-06-17 19:09:42,104517
6234c8127a4c8c2c2c0ac967,ma_choice_v4_observers_pilot2,6234c8127a4c8c2c2c0ac967,2,1,-1,-1,"Quality of kitchen,Reputation of closest school,Year building was built,Size of home,Size of yard,Amount of traffic,Noise pollution,Closeness to parks,Quality of heat/AC system","Good,Good,1971,1100 square feet,600 square feet,A Lot,Low,30 min away,Good","Bad,Very Bad,2008,1400 square feet,300 square feet,Very Little,High,10 min away,Bad",1,1,19234,2022-06-17 19:09:45,104518
62850d0754941f925e1af397,ma_choice_v4_observers_pilot2,62850d0754941f925e1af397,32,0,-1,-1,"Size of yard,Reputation of closest school,Noise pollution,Size of home,Closeness to parks,Amount of traffic,Quality of heat/AC system,Quality of kitchen,Year building was built","150 square feet,Very Bad,Low,700 square feet,25 min away,A Little,Bad,Bad,2010","400 square feet,Good,Very High,1500 square feet,15 min away,A Lot,Good,Very Good,1986",1,1,10155,2022-06-17 19:09:54,104519
6127df52d897b4da6d8ddda8,ma_choice_v4_observers_pilot2,6127df52d897b4da6d8ddda8,31,0,-1,-1,"Year building was built,Reputation of closest school,Size of yard,Quality of heat/AC system,Closeness to parks,Size of home,Amount of traffic,Noise pollution,Quality of kitchen","1974,Very Bad,550 square feet,Good,20 min away,1100 square feet,A Little,Very Low,Very Bad","2015,Moderate,400 square feet,Bad,10 min away,1400 square feet,A Lot,Very High,Moderate",0,0,29757,2022-06-17 19:09:54,104520
62acc04d0a7788636b0e9915,ma_choice_v4_observers_pilot2,62acc04d0a7788636b0e9915,1,0,-1,-1,"Reputation of closest school,Amount of traffic,Noise pollution,Quality of heat/AC system,Size of home,Size of yard,Quality of kitchen,Year building was built,Closeness to parks","Good,A Lot,Very High,Good,800 square feet,600 square feet,Good,1962,20 min away","Bad,A Little,Very Low,Very Bad,1800 square feet,250 square feet,Very Bad,2005,10 min away",1,1,138557,2022-06-17 19:09:55,104521
6234c8127a4c8c2c2c0ac967,ma_choice_v4_observers_pilot2,6234c8127a4c8c2c2c0ac967,3,1,-1,-1,"Closeness to parks,Reputation of closest school,Size of yard,Size of home,Year building was built,Quality of heat/AC system,Quality of kitchen,Amount of traffic,Noise pollution","20 min away,Moderate,450 square feet,1800 square feet,2005,Moderate,Very Bad,Very Little,Very Low","30 min away,Very Good,150 square feet,1400 square feet,1970,Very Bad,Moderate,A Lot,Moderate",0,0,15965,2022-06-17 19:10:02,104522
62850d0754941f925e1af397,ma_choice_v4_observers_pilot2,62850d0754941f925e1af397,33,0,-1,-1,"Closeness to parks,Amount of traffic,Size of home,Year building was built,Size of yard,Quality of heat/AC system,Reputation of closest school,Quality of kitchen,Noise pollution","20 min away,A Lot,1600 square feet,1964,200 square feet,Good,Bad,Very Good,Very High","30 min away,A Little,1200 square feet,2000,350 square feet,Bad,Good,Very Bad,Low",0,0,9319,2022-06-17 19:10:04,104523
601423ec0be39337dfd75b26,ma_choice_v4_observers_pilot2,601423ec0be39337dfd75b26,0,1,-1,-1,"Closeness to parks,Year building was built,Noise pollution,Size of home,Reputation of closest school,Quality of kitchen,Amount of traffic,Size of yard,Quality of heat/AC system","20 min away,1974,Very Low,1100 square feet,Good,Moderate,A Lot,450 square feet,Very Bad","30 min away,2020,Very High,1500 square feet,Very Bad,Very Bad,A Little,200 square feet,Good",0,0,19906,2022-06-17 19:10:13,104524
6234c8127a4c8c2c2c0ac967,ma_choice_v4_observers_pilot2,6234c8127a4c8c2c2c0ac967,4,1,-1,-1,"Noise pollution,Quality of kitchen,Year building was built,Size of yard,Size of home,Quality of heat/AC system,Reputation of closest school,Amount of traffic,Closeness to parks","Very Low,Good,1973,400 square feet,1100 square feet,Very Good,Good,A Moderate Amount,25 min away","High,Bad,2012,50 square feet,1300 square feet,Very Bad,Bad,Very Little,15 min away",0,0,15080,2022-06-17 19:10:18,104525
6127df52d897b4da6d8ddda8,ma_choice_v4_observers_pilot2,6127df52d897b4da6d8ddda8,32,0,-1,-1,"Amount of traffic,Size of yard,Quality of kitchen,Closeness to parks,Noise pollution,Size of home,Reputation of closest school,Quality of heat/AC system,Year building was built","Very Little,350 square feet,Very Bad,15 min away,Moderate,800 square feet,Good,Good,1975","A Lot,600 square feet,Very Good,25 min away,Very High,1600 square feet,Bad,Bad,2001",0,0,23561,2022-06-17 19:10:18,104526
62850d0754941f925e1af397,ma_choice_v4_observers_pilot2,62850d0754941f925e1af397,34,0,-1,-1,"Closeness to parks,Noise pollution,Reputation of closest school,Amount of traffic,Year building was built,Quality of kitchen,Size of home,Quality of heat/AC system,Size of yard","15 min away,Moderate,Very Good,A Little,2009,Very Good,1200 square feet,Very Good,50 square feet","30 min away,Very High,Bad,A Lot,1964,Very Bad,1500 square feet,Very Bad,450 square feet",0,0,18331,2022-06-17 19:10:23,104527
6127df52d897b4da6d8ddda8,ma_choice_v4_observers_pilot2,6127df52d897b4da6d8ddda8,33,0,-1,-1,"Closeness to parks,Quality of heat/AC system,Size of yard,Reputation of closest school,Quality of kitchen,Size of home,Year building was built,Amount of traffic,Noise pollution","10 min away,Very Good,50 square feet,Very Good,Very Good,1800 square feet,1952,A Lot,Low","25 min away,Very Bad,350 square feet,Bad,Very Bad,900 square feet,1987,A Little,High",0,0,8965,2022-06-17 19:10:29,104528
601423ec0be39337dfd75b26,ma_choice_v4_observers_pilot2,601423ec0be39337dfd75b26,1,1,-1,-1,"Year building was built,Size of home,Amount of traffic,Closeness to parks,Size of yard,Quality of kitchen,Quality of heat/AC system,Noise pollution,Reputation of closest school","1970,1400 square feet,A Lot,30 min away,150 square feet,Moderate,Very Bad,Moderate,Very Good","2005,1800 square feet,Very Little,20 min away,450 square feet,Very Bad,Moderate,Very Low,Moderate",1,1,18245,2022-06-17 19:10:32,104529
62850d0754941f925e1af397,ma_choice_v4_observers_pilot2,62850d0754941f925e1af397,35,0,-1,-1,"Closeness to parks,Size of yard,Year building was built,Reputation of closest school,Noise pollution,Amount of traffic,Quality of heat/AC system,Size of home,Quality of kitchen","25 min away,300 square feet,1983,Bad,Moderate,A Lot,Moderate,1800 square feet,Very Bad","15 min away,0 square feet,2003,Very Good,Very High,A Little,Very Bad,700 square feet,Good",0,0,10422,2022-06-17 19:10:35,104530
6127df52d897b4da6d8ddda8,ma_choice_v4_observers_pilot2,6127df52d897b4da6d8ddda8,34,0,-1,-1,"Quality of heat/AC system,Size of home,Noise pollution,Closeness to parks,Year building was built,Size of yard,Reputation of closest school,Quality of kitchen,Amount of traffic","Bad,600 square feet,Very Low,30 min away,1983,500 square feet,Very Good,Very Good,A Moderate Amount","Good,900 square feet,Moderate,15 min away,2017,150 square feet,Moderate,Very Bad,Very Little",1,1,7681,2022-06-17 19:10:37,104531
6234c8127a4c8c2c2c0ac967,ma_choice_v4_observers_pilot2,6234c8127a4c8c2c2c0ac967,5,1,-1,-1,"Reputation of closest school,Noise pollution,Quality of heat/AC system,Amount of traffic,Closeness to parks,Size of yard,Size of home,Quality of kitchen,Year building was built","Good,High,Very Good,A Lot,10 min away,350 square feet,700 square feet,Very Bad,2013","Very Bad,Very Low,Very Bad,A Little,30 min away,100 square feet,1200 square feet,Moderate,1974",1,1,20917,2022-06-17 19:10:40,104532
601423ec0be39337dfd75b26,ma_choice_v4_observers_pilot2,601423ec0be39337dfd75b26,2,1,-1,-1,"Closeness to parks,Year building was built,Size of yard,Quality of heat/AC system,Reputation of closest school,Amount of traffic,Noise pollution,Quality of kitchen,Size of home","20 min away,1993,100 square feet,Moderate,Very Good,A Little,High,Very Good,1700 square feet","30 min away,1953,250 square feet,Very Good,Moderate,A Lot,Low,Bad,800 square feet",0,0,12360,2022-06-17 19:10:45,104533
6127df52d897b4da6d8ddda8,ma_choice_v4_observers_pilot2,6127df52d897b4da6d8ddda8,35,0,-1,-1,"Quality of kitchen,Amount of traffic,Reputation of closest school,Closeness to parks,Year building was built,Noise pollution,Size of home,Size of yard,Quality of heat/AC system","Very Good,A Moderate Amount,Very Good,10 min away,1954,Low,1300 square feet,350 square feet,Bad","Bad,Very Little,Moderate,20 min away,2013,High,1600 square feet,500 square feet,Very Good",1,1,7683,2022-06-17 19:10:46,104534
62850d0754941f925e1af397,ma_choice_v4_observers_pilot2,62850d0754941f925e1af397,36,0,-1,-1,"Closeness to parks,Year building was built,Quality of kitchen,Noise pollution,Reputation of closest school,Size of home,Quality of heat/AC system,Size of yard,Amount of traffic","25 min away,2004,Very Good,High,Good,1700 square feet,Very Good,200 square feet,A Little","15 min away,1961,Very Bad,Very Low,Bad,1000 square feet,Moderate,600 square feet,A Lot",0,0,13005,2022-06-17 19:10:49,104535
6234c8127a4c8c2c2c0ac967,ma_choice_v4_observers_pilot2,6234c8127a4c8c2c2c0ac967,6,1,-1,-1,"Reputation of closest school,Year building was built,Size of home,Size of yard,Closeness to parks,Quality of heat/AC system,Noise pollution,Amount of traffic,Quality of kitchen","Moderate,1955,1500 square feet,500 square feet,25 min away,Very Good,Very Low,Very Little,Very Good","Very Bad,2006,1100 square feet,300 square feet,15 min away,Moderate,Moderate,A Lot,Very Bad",0,0,10982,2022-06-17 19:10:52,104536
601423ec0be39337dfd75b26,ma_choice_v4_observers_pilot2,601423ec0be39337dfd75b26,3,1,-1,-1,"Quality of kitchen,Noise pollution,Year building was built,Quality of heat/AC system,Size of yard,Size of home,Amount of traffic,Reputation of closest school,Closeness to parks","Good,Low,2016,Moderate,150 square feet,1300 square feet,A Lot,Moderate,25 min away","Very Bad,Very High,1972,Very Good,350 square feet,1000 square feet,A Little,Very Bad,10 min away",0,0,9226,2022-06-17 19:10:56,104537
6127df52d897b4da6d8ddda8,ma_choice_v4_observers_pilot2,6127df52d897b4da6d8ddda8,36,0,-1,-1,"Noise pollution,Year building was built,Amount of traffic,Closeness to parks,Quality of heat/AC system,Reputation of closest school,Size of home,Size of yard,Quality of kitchen","Very High,1997,A Lot,30 min away,Good,Bad,600 square feet,100 square feet,Good","Very Low,2017,A Little,15 min away,Very Bad,Good,900 square feet,250 square feet,Very Bad",0,0,10655,2022-06-17 19:10:57,104538
62850d0754941f925e1af397,ma_choice_v4_observers_pilot2,62850d0754941f925e1af397,37,0,-1,-1,"Closeness to parks,Noise pollution,Reputation of closest school,Amount of traffic,Size of yard,Quality of kitchen,Size of home,Quality of heat/AC system,Year building was built","25 min away,Low,Good,A Little,250 square feet,Moderate,1100 square feet,Moderate,2006","10 min away,Very High,Bad,A Lot,450 square feet,Very Bad,1500 square feet,Very Bad,1974",0,0,16527,2022-06-17 19:11:06,104539
6127df52d897b4da6d8ddda8,ma_choice_v4_observers_pilot2,6127df52d897b4da6d8ddda8,37,0,-1,-1,"Noise pollution,Quality of kitchen,Quality of heat/AC system,Closeness to parks,Reputation of closest school,Size of yard,Amount of traffic,Year building was built,Size of home","High,Good,Moderate,20 min away,Very Bad,250 square feet,A Moderate Amount,1961,1700 square feet","Low,Bad,Very Bad,30 min away,Very Good,500 square feet,Very Little,2002,900 square feet",0,0,8373,2022-06-17 19:11:07,104540
6234c8127a4c8c2c2c0ac967,ma_choice_v4_observers_pilot2,6234c8127a4c8c2c2c0ac967,7,1,-1,-1,"Quality of kitchen,Closeness to parks,Noise pollution,Amount of traffic,Size of home,Reputation of closest school,Quality of heat/AC system,Size of yard,Year building was built","Very Bad,20 min away,Very High,A Lot,600 square feet,Good,Very Good,500 square feet,1950","Good,10 min away,Very Low,Very Little,900 square feet,Very Bad,Moderate,350 square feet,1995",1,1,14980,2022-06-17 19:11:08,104541
6127df52d897b4da6d8ddda8,ma_choice_v4_observers_pilot2,6127df52d897b4da6d8ddda8,38,0,-1,-1,"Reputation of closest school,Quality of heat/AC system,Noise pollution,Amount of traffic,Quality of kitchen,Size of home,Closeness to parks,Size of yard,Year building was built","Very Good,Very Good,Low,A Little,Very Bad,900 square feet,15 min away,550 square feet,1984","Bad,Bad,High,A Lot,Moderate,1300 square feet,25 min away,50 square feet,1953",0,0,8601,2022-06-17 19:11:16,104542
601423ec0be39337dfd75b26,ma_choice_v4_observers_pilot2,601423ec0be39337dfd75b26,4,1,-1,-1,"Quality of heat/AC system,Size of yard,Closeness to parks,Noise pollution,Amount of traffic,Size of home,Year building was built,Quality of kitchen,Reputation of closest school","Bad,300 square feet,10 min away,High,Very Little,1400 square feet,2008,Bad,Very Bad","Good,600 square feet,30 min away,Low,A Lot,1100 square feet,1971,Good,Good",1,1,21308,2022-06-17 19:11:18,104543
62850d0754941f925e1af397,ma_choice_v4_observers_pilot2,62850d0754941f925e1af397,38,0,-1,-1,"Size of yard,Closeness to parks,Reputation of closest school,Quality of kitchen,Quality of heat/AC system,Size of home,Noise pollution,Amount of traffic,Year building was built","350 square feet,20 min away,Bad,Very Bad,Moderate,600 square feet,High,A Lot,1989","50 square feet,10 min away,Very Good,Very Good,Very Good,1600 square feet,Very Low,A Little,1961",1,1,13301,2022-06-17 19:11:21,104544
6127df52d897b4da6d8ddda8,ma_choice_v4_observers_pilot2,6127df52d897b4da6d8ddda8,39,0,-1,-1,"Quality of kitchen,Year building was built,Noise pollution,Quality of heat/AC system,Amount of traffic,Size of home,Size of yard,Closeness to parks,Reputation of closest school","Moderate,2002,Moderate,Good,A Moderate Amount,700 square feet,300 square feet,30 min away,Good","Very Good,1969,Very Low,Bad,Very Little,1100 square feet,100 square feet,10 min away,Bad",0,0,9743,2022-06-17 19:11:27,104545
6234c8127a4c8c2c2c0ac967,ma_choice_v4_observers_pilot2,6234c8127a4c8c2c2c0ac967,8,1,-1,-1,"Year building was built,Closeness to parks,Quality of heat/AC system,Quality of kitchen,Amount of traffic,Reputation of closest school,Noise pollution,Size of home,Size of yard","1953,30 min away,Very Good,Bad,A Lot,Moderate,Low,800 square feet,250 square feet","1993,20 min away,Moderate,Very Good,A Little,Very Good,High,1700 square feet,100 square feet",1,1,18429,2022-06-17 19:11:28,104546
601423ec0be39337dfd75b26,ma_choice_v4_observers_pilot2,601423ec0be39337dfd75b26,5,1,-1,-1,"Year building was built,Noise pollution,Closeness to parks,Size of home,Amount of traffic,Size of yard,Quality of heat/AC system,Quality of kitchen,Reputation of closest school","2012,High,15 min away,1300 square feet,Very Little,50 square feet,Very Bad,Bad,Bad","1973,Very Low,25 min away,1100 square feet,A Moderate Amount,400 square feet,Very Good,Good,Good",1,1,9759,2022-06-17 19:11:29,104547
62acc04d0a7788636b0e9915,ma_choice_v4_observers_pilot2,62acc04d0a7788636b0e9915,2,0,-1,-1,"Amount of traffic,Noise pollution,Closeness to parks,Quality of heat/AC system,Reputation of closest school,Size of yard,Size of home,Year building was built,Quality of kitchen","Very Little,High,30 min away,Moderate,Bad,50 square feet,1200 square feet,2018,Moderate","A Moderate Amount,Very Low,15 min away,Very Bad,Good,550 square feet,1700 square feet,1994,Very Bad",1,1,94797,2022-06-17 19:11:31,104548
62850d0754941f925e1af397,ma_choice_v4_observers_pilot2,62850d0754941f925e1af397,39,0,-1,-1,"Quality of heat/AC system,Quality of kitchen,Amount of traffic,Size of home,Noise pollution,Closeness to parks,Reputation of closest school,Size of yard,Year building was built","Very Good,Moderate,Very Little,800 square feet,Very Low,15 min away,Bad,300 square feet,1966","Moderate,Very Bad,A Lot,1400 square feet,Moderate,30 min away,Good,100 square feet,1987",1,1,14558,2022-06-17 19:11:36,104549
6127df52d897b4da6d8ddda8,ma_choice_v4_observers_pilot2,6127df52d897b4da6d8ddda8,40,0,-1,-1,"Size of home,Year building was built,Closeness to parks,Amount of traffic,Quality of kitchen,Quality of heat/AC system,Reputation of closest school,Size of yard,Noise pollution","800 square feet,2014,25 min away,A Lot,Good,Very Good,Good,500 square feet,Low","1500 square feet,1990,15 min away,Very Little,Very Bad,Moderate,Very Bad,250 square feet,Very High",0,0,8349,2022-06-17 19:11:37,104550
6234c8127a4c8c2c2c0ac967,ma_choice_v4_observers_pilot2,6234c8127a4c8c2c2c0ac967,9,1,-1,-1,"Amount of traffic,Quality of heat/AC system,Closeness to parks,Reputation of closest school,Size of yard,Year building was built,Quality of kitchen,Noise pollution,Size of home","Very Little,Bad,30 min away,Very Good,300 square feet,2009,Very Good,Low,1600 square feet","A Lot,Good,15 min away,Moderate,150 square feet,1950,Moderate,Very High,1400 square feet",0,0,15514,2022-06-17 19:11:44,104551
601423ec0be39337dfd75b26,ma_choice_v4_observers_pilot2,601423ec0be39337dfd75b26,6,1,-1,-1,"Amount of traffic,Closeness to parks,Noise pollution,Reputation of closest school,Quality of heat/AC system,Size of yard,Size of home,Year building was built,Quality of kitchen","Very Little,25 min away,Very Low,Moderate,Very Good,500 square feet,1500 square feet,1955,Very Good","A Lot,15 min away,Moderate,Very Bad,Moderate,300 square feet,1100 square feet,2006,Very Bad",0,0,15230,2022-06-17 19:11:45,104552
6127df52d897b4da6d8ddda8,ma_choice_v4_observers_pilot2,6127df52d897b4da6d8ddda8,41,0,-1,-1,"Size of yard,Quality of heat/AC system,Size of home,Closeness to parks,Reputation of closest school,Amount of traffic,Year building was built,Quality of kitchen,Noise pollution","200 square feet,Bad,1500 square feet,10 min away,Bad,Very Little,1995,Very Bad,Moderate","50 square feet,Very Good,1700 square feet,25 min away,Good,A Lot,1958,Moderate,Very High",1,1,9954,2022-06-17 19:11:48,104553
62850d0754941f925e1af397,ma_choice_v4_observers_pilot2,62850d0754941f925e1af397,40,0,-1,-1,"Size of yard,Size of home,Reputation of closest school,Amount of traffic,Quality of kitchen,Year building was built,Closeness to parks,Quality of heat/AC system,Noise pollution","600 square feet,1600 square feet,Bad,A Lot,Very Good,2001,25 min away,Bad,Very High","350 square feet,800 square feet,Good,Very Little,Very Bad,1975,15 min away,Good,Moderate",0,0,11469,2022-06-17 19:11:49,104554
6127df52d897b4da6d8ddda8,ma_choice_v4_observers_pilot2,6127df52d897b4da6d8ddda8,42,0,-1,-1,"Quality of heat/AC system,Quality of kitchen,Year building was built,Size of yard,Amount of traffic,Noise pollution,Reputation of closest school,Closeness to parks,Size of home","Good,Very Bad,1951,350 square feet,A Lot,Very Low,Bad,10 min away,1200 square feet","Very Bad,Very Good,1980,150 square feet,A Little,Moderate,Good,20 min away,1700 square feet",0,0,8158,2022-06-17 19:11:57,104555
601423ec0be39337dfd75b26,ma_choice_v4_observers_pilot2,601423ec0be39337dfd75b26,7,1,-1,-1,"Noise pollution,Quality of kitchen,Closeness to parks,Size of home,Quality of heat/AC system,Year building was built,Size of yard,Amount of traffic,Reputation of closest school","Very High,Very Bad,20 min away,600 square feet,Very Good,1950,500 square feet,A Lot,Good","Very Low,Good,10 min away,900 square feet,Moderate,1995,350 square feet,Very Little,Very Bad",0,0,16797,2022-06-17 19:12:03,104556
62850d0754941f925e1af397,ma_choice_v4_observers_pilot2,62850d0754941f925e1af397,41,0,-1,-1,"Quality of kitchen,Size of home,Amount of traffic,Closeness to parks,Year building was built,Quality of heat/AC system,Reputation of closest school,Noise pollution,Size of yard","Moderate,1200 square feet,Very Little,10 min away,1962,Very Good,Moderate,Moderate,250 square feet","Very Bad,700 square feet,A Moderate Amount,25 min away,1998,Very Bad,Very Good,Very Low,400 square feet",0,0,15198,2022-06-17 19:12:05,104557
6127df52d897b4da6d8ddda8,ma_choice_v4_observers_pilot2,6127df52d897b4da6d8ddda8,43,0,-1,-1,"Quality of kitchen,Size of yard,Closeness to parks,Noise pollution,Reputation of closest school,Amount of traffic,Year building was built,Size of home,Quality of heat/AC system","Very Good,450 square feet,25 min away,Very High,Moderate,Very Little,2014,1400 square feet,Bad","Moderate,200 square feet,10 min away,Low,Very Good,A Lot,1989,1800 square feet,Good",1,1,7710,2022-06-17 19:12:05,104558
62850d0754941f925e1af397,ma_choice_v4_observers_pilot2,62850d0754941f925e1af397,42,0,-1,-1,"Size of home,Closeness to parks,Quality of kitchen,Noise pollution,Year building was built,Amount of traffic,Reputation of closest school,Size of yard,Quality of heat/AC system","900 square feet,10 min away,Moderate,Very Low,1975,A Moderate Amount,Bad,200 square feet,Moderate","1200 square feet,30 min away,Very Good,Very High,2013,Very Little,Good,500 square feet,Very Good",1,1,10523,2022-06-17 19:12:16,104559
6127df52d897b4da6d8ddda8,ma_choice_v4_observers_pilot2,6127df52d897b4da6d8ddda8,44,0,-1,-1,"Closeness to parks,Noise pollution,Quality of heat/AC system,Reputation of closest school,Amount of traffic,Size of home,Size of yard,Quality of kitchen,Year building was built","30 min away,Moderate,Moderate,Good,A Lot,1400 square feet,100 square feet,Very Bad,1987","15 min away,Very Low,Very Good,Bad,Very Little,800 square feet,300 square feet,Moderate,1966",1,1,11574,2022-06-17 19:12:18,104560
601423ec0be39337dfd75b26,ma_choice_v4_observers_pilot2,601423ec0be39337dfd75b26,8,1,-1,-1,"Noise pollution,Reputation of closest school,Quality of heat/AC system,Amount of traffic,Closeness to parks,Quality of kitchen,Size of yard,Size of home,Year building was built","High,Good,Very Good,A Lot,10 min away,Very Bad,350 square feet,700 square feet,2013","Very Low,Very Bad,Very Bad,A Little,30 min away,Moderate,100 square feet,1200 square feet,1974",0,0,19575,2022-06-17 19:12:23,104561
62850d0754941f925e1af397,ma_choice_v4_observers_pilot2,62850d0754941f925e1af397,43,0,-1,-1,"Closeness to parks,Quality of kitchen,Amount of traffic,Noise pollution,Size of home,Reputation of closest school,Year building was built,Size of yard,Quality of heat/AC system","30 min away,Very Good,A Moderate Amount,Very High,1300 square feet,Very Good,1957,350 square feet,Good","10 min away,Moderate,Very Little,Low,800 square feet,Moderate,1999,0 square feet,Very Bad",0,0,11745,2022-06-17 19:12:29,104562
62850d0754941f925e1af397,ma_choice_v4_observers_pilot2,62850d0754941f925e1af397,44,0,-1,-1,"Quality of kitchen,Size of home,Closeness to parks,Amount of traffic,Reputation of closest school,Size of yard,Year building was built,Quality of heat/AC system,Noise pollution","Bad,1500 square feet,30 min away,Very Little,Very Bad,600 square feet,2013,Good,Moderate","Very Good,900 square feet,10 min away,A Moderate Amount,Good,400 square feet,1964,Bad,Very Low",0,0,9148,2022-06-17 19:12:39,104563
601423ec0be39337dfd75b26,ma_choice_v4_observers_pilot2,601423ec0be39337dfd75b26,9,1,-1,-1,"Year building was built,Quality of kitchen,Noise pollution,Closeness to parks,Amount of traffic,Quality of heat/AC system,Size of yard,Reputation of closest school,Size of home","1950,Moderate,Very High,15 min away,A Lot,Good,150 square feet,Moderate,1400 square feet","2009,Very Good,Low,30 min away,Very Little,Bad,300 square feet,Very Good,1600 square feet",1,1,16245,2022-06-17 19:12:41,104564
6127df52d897b4da6d8ddda8,ma_choice_v4_observers_pilot2,6127df52d897b4da6d8ddda8,45,0,-1,-1,"Year building was built,Closeness to parks,Size of home,Quality of heat/AC system,Noise pollution,Quality of kitchen,Size of yard,Amount of traffic,Reputation of closest school","1981,10 min away,1700 square feet,Moderate,Low,Bad,450 square feet,A Lot,Bad","1957,25 min away,700 square feet,Very Good,High,Very Good,250 square feet,A Little,Very Good",0,0,36495,2022-06-17 19:12:55,104565
62850d0754941f925e1af397,ma_choice_v4_observers_pilot2,62850d0754941f925e1af397,45,0,-1,-1,"Amount of traffic,Noise pollution,Year building was built,Size of home,Size of yard,Quality of kitchen,Closeness to parks,Reputation of closest school,Quality of heat/AC system","Very Little,Low,1984,1500 square feet,600 square feet,Good,15 min away,Very Bad,Bad","A Moderate Amount,Very High,2007,1100 square feet,350 square feet,Bad,30 min away,Good,Very Good",1,1,19274,2022-06-17 19:13:00,104566
62acc04d0a7788636b0e9915,ma_choice_v4_observers_pilot2,62acc04d0a7788636b0e9915,3,0,-1,-1,"Size of yard,Noise pollution,Closeness to parks,Amount of traffic,Reputation of closest school,Year building was built,Size of home,Quality of heat/AC system,Quality of kitchen","350 square feet,Low,20 min away,Very Little,Good,1982,1500 square feet,Moderate,Very Good","150 square feet,High,10 min away,A Moderate Amount,Bad,2003,900 square feet,Very Bad,Moderate",0,0,96560,2022-06-17 19:13:08,104567
6127df52d897b4da6d8ddda8,ma_choice_v4_observers_pilot2,6127df52d897b4da6d8ddda8,46,0,-1,-1,"Size of yard,Closeness to parks,Year building was built,Noise pollution,Reputation of closest school,Amount of traffic,Quality of heat/AC system,Size of home,Quality of kitchen","250 square feet,25 min away,2006,Low,Good,A Little,Moderate,1100 square feet,Moderate","450 square feet,10 min away,1974,Very High,Bad,A Lot,Very Bad,1500 square feet,Very Bad",0,0,17530,2022-06-17 19:13:14,104568
62850d0754941f925e1af397,ma_choice_v4_observers_pilot2,62850d0754941f925e1af397,46,0,-1,-1,"Size of yard,Amount of traffic,Reputation of closest school,Size of home,Noise pollution,Quality of kitchen,Quality of heat/AC system,Year building was built,Closeness to parks","550 square feet,A Moderate Amount,Good,1700 square feet,Very Low,Very Bad,Very Bad,1994,15 min away","50 square feet,Very Little,Bad,1200 square feet,High,Moderate,Moderate,2018,30 min away",0,0,15647,2022-06-17 19:13:16,104569
6127df52d897b4da6d8ddda8,ma_choice_v4_observers_pilot2,6127df52d897b4da6d8ddda8,47,0,-1,-1,"Noise pollution,Closeness to parks,Quality of heat/AC system,Size of home,Reputation of closest school,Quality of kitchen,Size of yard,Year building was built,Amount of traffic","Moderate,10 min away,Very Good,1200 square feet,Moderate,Moderate,250 square feet,1962,Very Little","Very Low,25 min away,Very Bad,700 square feet,Very Good,Very Bad,400 square feet,1998,A Moderate Amount",0,0,9133,2022-06-17 19:13:24,104570
6234c8127a4c8c2c2c0ac967,ma_choice_v4_observers_pilot2,6234c8127a4c8c2c2c0ac967,0,0,-1,-1,"Amount of traffic,Size of home,Quality of heat/AC system,Closeness to parks,Noise pollution,Quality of kitchen,Year building was built,Size of yard,Reputation of closest school","A Lot,1300 square feet,Bad,25 min away,High,Moderate,1953,50 square feet,Bad","A Little,900 square feet,Very Good,15 min away,Low,Very Bad,1984,550 square feet,Very Good",1,1,66554,2022-06-17 19:13:26,104571
62850d0754941f925e1af397,ma_choice_v4_observers_pilot2,62850d0754941f925e1af397,47,0,-1,-1,"Quality of heat/AC system,Closeness to parks,Size of home,Quality of kitchen,Amount of traffic,Reputation of closest school,Year building was built,Noise pollution,Size of yard","Moderate,10 min away,700 square feet,Good,A Little,Bad,1985,Very Low,250 square feet","Very Good,20 min away,1400 square feet,Bad,A Lot,Good,2010,High,400 square feet",1,1,12216,2022-06-17 19:13:29,104572
6127df52d897b4da6d8ddda8,ma_choice_v4_observers_pilot2,6127df52d897b4da6d8ddda8,48,0,-1,-1,"Closeness to parks,Reputation of closest school,Noise pollution,Quality of heat/AC system,Amount of traffic,Year building was built,Quality of kitchen,Size of home,Size of yard","10 min away,Good,Very Low,Very Bad,Very Little,1971,Very Good,700 square feet,350 square feet","20 min away,Bad,High,Moderate,A Moderate Amount,2000,Bad,1200 square feet,600 square feet",1,1,8389,2022-06-17 19:13:34,104573
6127df52d897b4da6d8ddda8,ma_choice_v4_observers_pilot2,6127df52d897b4da6d8ddda8,49,0,-1,-1,"Quality of heat/AC system,Amount of traffic,Closeness to parks,Size of yard,Noise pollution,Quality of kitchen,Year building was built,Reputation of closest school,Size of home","Very Good,A Little,25 min away,500 square feet,Very High,Very Bad,2015,Very Bad,1000 square feet","Very Bad,A Lot,15 min away,200 square feet,Low,Moderate,1991,Moderate,1300 square feet",0,0,9400,2022-06-17 19:13:44,104574
62850d0754941f925e1af397,ma_choice_v4_observers_pilot2,62850d0754941f925e1af397,48,0,-1,-1,"Closeness to parks,Amount of traffic,Quality of kitchen,Reputation of closest school,Size of home,Size of yard,Noise pollution,Quality of heat/AC system,Year building was built","10 min away,Very Little,Very Good,Very Bad,1700 square feet,200 square feet,Very Low,Very Good,1960","25 min away,A Moderate Amount,Moderate,Moderate,1100 square feet,450 square feet,High,Moderate,2013",0,0,19658,2022-06-17 19:13:50,104575
6127df52d897b4da6d8ddda8,ma_choice_v4_observers_pilot2,6127df52d897b4da6d8ddda8,50,0,-1,-1,"Quality of heat/AC system,Year building was built,Size of home,Noise pollution,Quality of kitchen,Closeness to parks,Amount of traffic,Reputation of closest school,Size of yard","Very Bad,1979,1200 square feet,Very Low,Very Good,25 min away,A Moderate Amount,Bad,50 square feet","Good,1950,700 square feet,High,Bad,10 min away,Very Little,Good,450 square feet",1,1,8705,2022-06-17 19:13:54,104576
601423ec0be39337dfd75b26,ma_choice_v4_observers_pilot2,601423ec0be39337dfd75b26,0,0,-1,-1,"Year building was built,Amount of traffic,Noise pollution,Size of home,Reputation of closest school,Size of yard,Quality of heat/AC system,Closeness to parks,Quality of kitchen","1974,A Moderate Amount,High,1500 square feet,Very Good,550 square feet,Bad,20 min away,Very Bad","2016,Very Little,Very Low,700 square feet,Moderate,200 square feet,Very Good,10 min away,Good",1,1,29243,2022-06-17 19:13:56,104577
6127df52d897b4da6d8ddda8,ma_choice_v4_observers_pilot2,6127df52d897b4da6d8ddda8,51,0,-1,-1,"Quality of kitchen,Closeness to parks,Year building was built,Quality of heat/AC system,Noise pollution,Reputation of closest school,Amount of traffic,Size of yard,Size of home","Very Bad,20 min away,1989,Moderate,High,Bad,A Lot,350 square feet,600 square feet","Very Good,10 min away,1961,Very Good,Very Low,Very Good,A Little,50 square feet,1600 square feet",1,1,10336,2022-06-17 19:14:05,104578
62850d0754941f925e1af397,ma_choice_v4_observers_pilot2,62850d0754941f925e1af397,49,0,-1,-1,"Noise pollution,Size of yard,Reputation of closest school,Closeness to parks,Year building was built,Amount of traffic,Quality of heat/AC system,Quality of kitchen,Size of home","Very High,600 square feet,Good,20 min away,1962,A Lot,Good,Good,800 square feet","Very Low,250 square feet,Bad,10 min away,2005,A Little,Very Bad,Very Bad,1800 square feet",1,1,17827,2022-06-17 19:14:09,104579
62850d0754941f925e1af397,ma_choice_v4_observers_pilot2,62850d0754941f925e1af397,50,0,-1,-1,"Noise pollution,Reputation of closest school,Size of yard,Size of home,Quality of heat/AC system,Year building was built,Quality of kitchen,Closeness to parks,Amount of traffic","Very Low,Very Good,350 square feet,1100 square feet,Very Bad,2006,Bad,20 min away,A Little","High,Moderate,500 square feet,1600 square feet,Very Good,1968,Very Good,10 min away,A Lot",1,1,9191,2022-06-17 19:14:19,104580
601423ec0be39337dfd75b26,ma_choice_v4_observers_pilot2,601423ec0be39337dfd75b26,1,0,-1,-1,"Quality of kitchen,Amount of traffic,Reputation of closest school,Year building was built,Closeness to parks,Size of home,Quality of heat/AC system,Size of yard,Noise pollution","Good,A Little,Bad,1985,10 min away,700 square feet,Moderate,250 square feet,Very Low","Bad,A Lot,Good,2010,20 min away,1400 square feet,Very Good,400 square feet,High",1,1,22412,2022-06-17 19:14:19,104581
62850d0754941f925e1af397,ma_choice_v4_observers_pilot2,62850d0754941f925e1af397,51,0,-1,-1,"Amount of traffic,Closeness to parks,Size of home,Quality of kitchen,Noise pollution,Quality of heat/AC system,Year building was built,Reputation of closest school,Size of yard","A Lot,25 min away,1000 square feet,Very Bad,Low,Very Bad,2010,Good,400 square feet","Very Little,15 min away,700 square feet,Good,High,Moderate,1969,Very Bad,150 square feet",0,0,8260,2022-06-17 19:14:28,104582
6234c8127a4c8c2c2c0ac967,ma_choice_v4_observers_pilot2,6234c8127a4c8c2c2c0ac967,1,0,-1,-1,"Year building was built,Closeness to parks,Amount of traffic,Size of yard,Size of home,Quality of heat/AC system,Reputation of closest school,Quality of kitchen,Noise pollution","1958,25 min away,A Lot,50 square feet,1700 square feet,Very Good,Good,Moderate,Very High","1995,10 min away,Very Little,200 square feet,1500 square feet,Bad,Bad,Very Bad,Moderate",0,0,62923,2022-06-17 19:14:30,104583
6127df52d897b4da6d8ddda8,ma_choice_v4_observers_pilot2,6127df52d897b4da6d8ddda8,52,0,-1,-1,"Amount of traffic,Quality of kitchen,Size of yard,Size of home,Closeness to parks,Reputation of closest school,Year building was built,Noise pollution,Quality of heat/AC system","A Lot,Very Bad,300 square feet,1800 square feet,25 min away,Bad,1983,Moderate,Moderate","A Little,Good,0 square feet,700 square feet,15 min away,Very Good,2003,Very High,Very Bad",0,0,28431,2022-06-17 19:14:35,104584
601423ec0be39337dfd75b26,ma_choice_v4_observers_pilot2,601423ec0be39337dfd75b26,2,0,-1,-1,"Quality of heat/AC system,Year building was built,Quality of kitchen,Size of yard,Size of home,Closeness to parks,Noise pollution,Reputation of closest school,Amount of traffic","Good,1950,Bad,450 square feet,700 square feet,10 min away,High,Good,Very Little","Very Bad,1979,Very Good,50 square feet,1200 square feet,25 min away,Very Low,Bad,A Moderate Amount",0,0,16411,2022-06-17 19:14:37,104585
62850d0754941f925e1af397,ma_choice_v4_observers_pilot2,62850d0754941f925e1af397,52,0,-1,-1,"Reputation of closest school,Quality of heat/AC system,Noise pollution,Quality of kitchen,Closeness to parks,Size of home,Size of yard,Amount of traffic,Year building was built","Very Bad,Bad,Low,Very Bad,25 min away,1100 square feet,0 square feet,A Lot,2013","Moderate,Good,High,Moderate,15 min away,600 square feet,600 square feet,Very Little,1968",0,0,13631,2022-06-17 19:14:43,104586
6127df52d897b4da6d8ddda8,ma_choice_v4_observers_pilot2,6127df52d897b4da6d8ddda8,53,0,-1,-1,"Size of home,Amount of traffic,Reputation of closest school,Quality of kitchen,Size of yard,Quality of heat/AC system,Closeness to parks,Year building was built,Noise pollution","700 square feet,Very Little,Good,Moderate,0 square feet,Very Good,30 min away,1954,Moderate","1300 square feet,A Lot,Bad,Very Good,350 square feet,Very Bad,10 min away,1984,Very Low",0,0,9233,2022-06-17 19:14:47,104587
62850d0754941f925e1af397,ma_choice_v4_observers_pilot2,62850d0754941f925e1af397,53,0,-1,-1,"Quality of kitchen,Reputation of closest school,Noise pollution,Closeness to parks,Amount of traffic,Size of yard,Quality of heat/AC system,Year building was built,Size of home","Very Bad,Bad,Moderate,10 min away,Very Little,200 square feet,Bad,1995,1500 square feet","Moderate,Good,Very High,25 min away,A Lot,50 square feet,Very Good,1958,1700 square feet",1,1,8540,2022-06-17 19:14:52,104588
601423ec0be39337dfd75b26,ma_choice_v4_observers_pilot2,601423ec0be39337dfd75b26,3,0,-1,-1,"Quality of heat/AC system,Noise pollution,Amount of traffic,Year building was built,Size of home,Closeness to parks,Reputation of closest school,Quality of kitchen,Size of yard","Bad,Very High,A Moderate Amount,2005,1500 square feet,10 min away,Very Bad,Very Bad,500 square feet","Very Good,Moderate,Very Little,1982,700 square feet,30 min away,Very Good,Moderate,100 square feet",1,1,14695,2022-06-17 19:14:53,104589
62acc04d0a7788636b0e9915,ma_choice_v4_observers_pilot2,62acc04d0a7788636b0e9915,4,0,-1,-1,"Size of yard,Quality of heat/AC system,Noise pollution,Reputation of closest school,Year building was built,Closeness to parks,Amount of traffic,Quality of kitchen,Size of home","400 square feet,Good,Very High,Good,1986,15 min away,A Lot,Very Good,1500 square feet","150 square feet,Bad,Low,Very Bad,2010,25 min away,A Little,Bad,700 square feet",1,1,109259,2022-06-17 19:14:58,104590
6127df52d897b4da6d8ddda8,ma_choice_v4_observers_pilot2,6127df52d897b4da6d8ddda8,54,0,-1,-1,"Quality of heat/AC system,Size of yard,Size of home,Noise pollution,Reputation of closest school,Amount of traffic,Year building was built,Quality of kitchen,Closeness to parks","Very Bad,200 square feet,900 square feet,Very High,Good,A Little,1953,Very Good,10 min away","Moderate,400 square feet,1500 square feet,Moderate,Bad,A Lot,1997,Bad,20 min away",1,1,14723,2022-06-17 19:15:00,104591
62850d0754941f925e1af397,ma_choice_v4_observers_pilot2,62850d0754941f925e1af397,54,0,-1,-1,"Noise pollution,Size of yard,Size of home,Closeness to parks,Quality of heat/AC system,Year building was built,Quality of kitchen,Amount of traffic,Reputation of closest school","Very High,0 square feet,1700 square feet,15 min away,Good,2007,Very Good,A Lot,Bad","Low,250 square feet,1200 square feet,25 min away,Very Bad,1977,Very Bad,A Little,Very Good",0,0,8472,2022-06-17 19:15:02,104592
601423ec0be39337dfd75b26,ma_choice_v4_observers_pilot2,601423ec0be39337dfd75b26,4,0,-1,-1,"Quality of kitchen,Size of yard,Closeness to parks,Year building was built,Size of home,Quality of heat/AC system,Noise pollution,Amount of traffic,Reputation of closest school","Very Bad,600 square feet,15 min away,1961,1000 square feet,Moderate,Very Low,A Lot,Bad","Very Good,200 square feet,25 min away,2004,1700 square feet,Very Good,High,A Little,Good",1,1,11058,2022-06-17 19:15:05,104593
6127df52d897b4da6d8ddda8,ma_choice_v4_observers_pilot2,6127df52d897b4da6d8ddda8,55,0,-1,-1,"Size of home,Amount of traffic,Year building was built,Size of yard,Quality of heat/AC system,Reputation of closest school,Quality of kitchen,Closeness to parks,Noise pollution","1100 square feet,A Moderate Amount,2007,350 square feet,Very Good,Good,Bad,30 min away,Very High","1500 square feet,Very Little,1984,600 square feet,Bad,Very Bad,Good,15 min away,Low",0,0,10425,2022-06-17 19:15:12,104594
62850d0754941f925e1af397,ma_choice_v4_observers_pilot2,62850d0754941f925e1af397,55,0,-1,-1,"Quality of kitchen,Size of home,Amount of traffic,Quality of heat/AC system,Closeness to parks,Year building was built,Reputation of closest school,Size of yard,Noise pollution","Good,900 square feet,Very Little,Very Bad,25 min away,2001,Very Good,300 square feet,Low","Very Bad,1200 square feet,A Lot,Good,10 min away,1965,Moderate,50 square feet,High",1,1,10837,2022-06-17 19:15:14,104595
6127df52d897b4da6d8ddda8,ma_choice_v4_observers_pilot2,6127df52d897b4da6d8ddda8,56,0,-1,-1,"Size of home,Quality of heat/AC system,Reputation of closest school,Amount of traffic,Closeness to parks,Year building was built,Noise pollution,Quality of kitchen,Size of yard","700 square feet,Moderate,Bad,A Little,10 min away,1985,Very Low,Good,250 square feet","1400 square feet,Very Good,Good,A Lot,20 min away,2010,High,Bad,400 square feet",0,0,8676,2022-06-17 19:15:22,104596
62850d0754941f925e1af397,ma_choice_v4_observers_pilot2,62850d0754941f925e1af397,56,0,-1,-1,"Size of home,Size of yard,Quality of kitchen,Year building was built,Amount of traffic,Quality of heat/AC system,Reputation of closest school,Closeness to parks,Noise pollution","1700 square feet,300 square feet,Very Bad,2010,A Moderate Amount,Bad,Bad,20 min away,Moderate","900 square feet,550 square feet,Very Good,1970,Very Little,Good,Very Good,30 min away,Very High",0,0,10520,2022-06-17 19:15:25,104597
6234c8127a4c8c2c2c0ac967,ma_choice_v4_observers_pilot2,6234c8127a4c8c2c2c0ac967,2,0,-1,-1,"Amount of traffic,Quality of kitchen,Reputation of closest school,Quality of heat/AC system,Closeness to parks,Size of yard,Year building was built,Size of home,Noise pollution","A Little,Very Good,Moderate,Very Bad,30 min away,600 square feet,1987,600 square feet,Very Low","A Lot,Moderate,Very Bad,Good,15 min away,350 square feet,2019,800 square feet,Moderate",0,0,54269,2022-06-17 19:15:26,104598
601423ec0be39337dfd75b26,ma_choice_v4_observers_pilot2,601423ec0be39337dfd75b26,5,0,-1,-1,"Quality of kitchen,Year building was built,Closeness to parks,Noise pollution,Size of yard,Quality of heat/AC system,Amount of traffic,Size of home,Reputation of closest school","Very Bad,1951,20 min away,Moderate,50 square feet,Bad,A Moderate Amount,1600 square feet,Very Good","Moderate,2000,30 min away,Very Low,300 square feet,Very Good,Very Little,900 square feet,Bad",0,0,24157,2022-06-17 19:15:30,104599
6127df52d897b4da6d8ddda8,ma_choice_v4_observers_pilot2,6127df52d897b4da6d8ddda8,57,0,-1,-1,"Quality of heat/AC system,Reputation of closest school,Year building was built,Noise pollution,Size of yard,Size of home,Amount of traffic,Closeness to parks,Quality of kitchen","Bad,Very Good,1974,High,550 square feet,1500 square feet,A Moderate Amount,20 min away,Very Bad","Very Good,Moderate,2016,Very Low,200 square feet,700 square feet,Very Little,10 min away,Good",1,1,8839,2022-06-17 19:15:31,104600
62850d0754941f925e1af397,ma_choice_v4_observers_pilot2,62850d0754941f925e1af397,57,0,-1,-1,"Noise pollution,Size of yard,Year building was built,Size of home,Reputation of closest school,Amount of traffic,Quality of heat/AC system,Quality of kitchen,Closeness to parks","Moderate,50 square feet,2016,1700 square feet,Good,A Lot,Good,Moderate,30 min away","Very High,500 square feet,1993,1100 square feet,Very Bad,A Little,Very Bad,Very Bad,15 min away",0,0,8978,2022-06-17 19:15:35,104601
5dba287f9653e80734e335d7,ma_choice_v4_observers_pilot2,5dba287f9653e80734e335d7,0,1,-1,-1,"Size of yard,Size of home,Quality of kitchen,Closeness to parks,Noise pollution,Year building was built,Quality of heat/AC system,Reputation of closest school,Amount of traffic","400 square feet,1100 square feet,Good,25 min away,Very Low,1973,Very Good,Good,A Moderate Amount","50 square feet,1300 square feet,Bad,15 min away,High,2012,Very Bad,Bad,Very Little",0,0,13984,2022-06-17 19:15:41,104602
6127df52d897b4da6d8ddda8,ma_choice_v4_observers_pilot2,6127df52d897b4da6d8ddda8,58,0,-1,-1,"Size of home,Year building was built,Quality of kitchen,Size of yard,Noise pollution,Amount of traffic,Reputation of closest school,Closeness to parks,Quality of heat/AC system","1100 square feet,1993,Very Bad,500 square feet,Very High,A Little,Very Bad,15 min away,Very Bad","1700 square feet,2016,Moderate,50 square feet,Moderate,A Lot,Good,30 min away,Good",1,1,8557,2022-06-17 19:15:41,104603
601423ec0be39337dfd75b26,ma_choice_v4_observers_pilot2,601423ec0be39337dfd75b26,6,0,-1,-1,"Noise pollution,Closeness to parks,Amount of traffic,Year building was built,Quality of kitchen,Quality of heat/AC system,Reputation of closest school,Size of yard,Size of home","High,30 min away,A Lot,2016,Very Good,Very Good,Very Good,450 square feet,600 square feet","Low,15 min away,A Little,1954,Moderate,Moderate,Very Bad,100 square feet,1000 square feet",0,0,11862,2022-06-17 19:15:43,104604
62850d0754941f925e1af397,ma_choice_v4_observers_pilot2,62850d0754941f925e1af397,58,0,-1,-1,"Closeness to parks,Size of yard,Noise pollution,Quality of kitchen,Quality of heat/AC system,Reputation of closest school,Size of home,Amount of traffic,Year building was built","30 min away,300 square feet,High,Very Bad,Very Bad,Bad,1000 square feet,A Little,1977","10 min away,50 square feet,Low,Very Good,Very Good,Good,1700 square feet,A Lot,1953",1,1,8504,2022-06-17 19:15:45,104605
6127df52d897b4da6d8ddda8,ma_choice_v4_observers_pilot2,6127df52d897b4da6d8ddda8,59,0,-1,-1,"Reputation of closest school,Size of yard,Quality of heat/AC system,Quality of kitchen,Closeness to parks,Amount of traffic,Year building was built,Noise pollution,Size of home","Very Bad,450 square feet,Very Good,Bad,25 min away,Very Little,2006,High,1400 square feet","Good,150 square feet,Bad,Good,15 min away,A Moderate Amount,1959,Low,1100 square feet",0,0,15244,2022-06-17 19:15:57,104606
601423ec0be39337dfd75b26,ma_choice_v4_observers_pilot2,601423ec0be39337dfd75b26,7,0,-1,-1,"Closeness to parks,Size of home,Year building was built,Quality of kitchen,Amount of traffic,Quality of heat/AC system,Reputation of closest school,Noise pollution,Size of yard","25 min away,1000 square feet,1992,Very Bad,A Lot,Good,Bad,Very Low,350 square feet","10 min away,1600 square feet,1956,Very Good,Very Little,Bad,Very Good,Very High,50 square feet",1,1,14760,2022-06-17 19:15:58,104607
6234c8127a4c8c2c2c0ac967,ma_choice_v4_observers_pilot2,6234c8127a4c8c2c2c0ac967,3,0,-1,-1,"Size of yard,Quality of heat/AC system,Amount of traffic,Quality of kitchen,Size of home,Closeness to parks,Noise pollution,Year building was built,Reputation of closest school","300 square feet,Moderate,A Lot,Moderate,1600 square feet,25 min away,Very High,2010,Bad","100 square feet,Very Bad,A Little,Very Bad,1000 square feet,10 min away,Moderate,1990,Very Good",0,0,37867,2022-06-17 19:16:04,104608
6127df52d897b4da6d8ddda8,ma_choice_v4_observers_pilot2,6127df52d897b4da6d8ddda8,60,0,-1,-1,"Reputation of closest school,Size of yard,Amount of traffic,Year building was built,Size of home,Quality of heat/AC system,Noise pollution,Quality of kitchen,Closeness to parks","Moderate,600 square feet,A Little,1987,600 square feet,Very Bad,Very Low,Very Good,30 min away","Very Bad,350 square feet,A Lot,2019,800 square feet,Good,Moderate,Moderate,15 min away",1,1,8375,2022-06-17 19:16:07,104609
62850d0754941f925e1af397,ma_choice_v4_observers_pilot2,62850d0754941f925e1af397,59,0,-1,-1,"Reputation of closest school,Size of home,Noise pollution,Amount of traffic,Quality of heat/AC system,Size of yard,Year building was built,Closeness to parks,Quality of kitchen","Moderate,1300 square feet,Low,A Lot,Very Bad,200 square feet,1991,15 min away,Moderate","Very Bad,1000 square feet,Very High,A Little,Very Good,500 square feet,2015,25 min away,Very Bad",1,1,23513,2022-06-17 19:16:09,104610
601423ec0be39337dfd75b26,ma_choice_v4_observers_pilot2,601423ec0be39337dfd75b26,8,0,-1,-1,"Quality of heat/AC system,Amount of traffic,Size of home,Noise pollution,Quality of kitchen,Size of yard,Closeness to parks,Reputation of closest school,Year building was built","Very Bad,A Moderate Amount,700 square feet,Very High,Bad,550 square feet,30 min away,Moderate,1959","Moderate,Very Little,1100 square feet,Low,Good,350 square feet,10 min away,Very Good,2010",1,1,11360,2022-06-17 19:16:11,104611
5dba287f9653e80734e335d7,ma_choice_v4_observers_pilot2,5dba287f9653e80734e335d7,1,1,-1,-1,"Reputation of closest school,Noise pollution,Size of home,Quality of kitchen,Size of yard,Year building was built,Closeness to parks,Quality of heat/AC system,Amount of traffic","Very Good,Low,1600 square feet,Very Good,300 square feet,2009,30 min away,Bad,Very Little","Moderate,Very High,1400 square feet,Moderate,150 square feet,1950,15 min away,Good,A Lot",0,0,31505,2022-06-17 19:16:14,104612
6127df52d897b4da6d8ddda8,ma_choice_v4_observers_pilot2,6127df52d897b4da6d8ddda8,61,0,-1,-1,"Quality of kitchen,Quality of heat/AC system,Closeness to parks,Year building was built,Reputation of closest school,Size of yard,Noise pollution,Size of home,Amount of traffic","Good,Very Bad,30 min away,2006,Very Good,100 square feet,Low,1100 square feet,A Lot","Very Bad,Very Good,10 min away,1957,Moderate,550 square feet,Very High,1400 square feet,A Little",1,1,8895,2022-06-17 19:16:17,104613
62acc04d0a7788636b0e9915,ma_choice_v4_observers_pilot2,62acc04d0a7788636b0e9915,5,0,-1,-1,"Noise pollution,Size of home,Reputation of closest school,Closeness to parks,Size of yard,Amount of traffic,Quality of kitchen,Year building was built,Quality of heat/AC system","Very High,700 square feet,Bad,25 min away,550 square feet,A Moderate Amount,Bad,1985,Good","Very Low,1200 square feet,Very Good,15 min away,200 square feet,Very Little,Good,2012,Very Bad",1,1,81461,2022-06-17 19:16:21,104614
62850d0754941f925e1af397,ma_choice_v4_observers_pilot2,62850d0754941f925e1af397,60,0,-1,-1,"Year building was built,Quality of kitchen,Closeness to parks,Size of yard,Noise pollution,Quality of heat/AC system,Reputation of closest school,Amount of traffic,Size of home","1968,Very Good,15 min away,300 square feet,Very Low,Good,Moderate,A Lot,1000 square feet","2019,Bad,30 min away,0 square feet,Very High,Bad,Very Good,A Little,600 square feet",0,0,11066,2022-06-17 19:16:21,104615
6127df52d897b4da6d8ddda8,ma_choice_v4_observers_pilot2,6127df52d897b4da6d8ddda8,62,0,-1,-1,"Quality of heat/AC system,Quality of kitchen,Noise pollution,Reputation of closest school,Amount of traffic,Closeness to parks,Size of yard,Year building was built,Size of home","Very Good,Moderate,Very Low,Bad,Very Little,30 min away,300 square feet,2000,900 square feet","Bad,Very Bad,Moderate,Very Good,A Moderate Amount,20 min away,50 square feet,1951,1600 square feet",0,0,8200,2022-06-17 19:16:26,104616
601423ec0be39337dfd75b26,ma_choice_v4_observers_pilot2,601423ec0be39337dfd75b26,9,0,-1,-1,"Closeness to parks,Amount of traffic,Year building was built,Size of yard,Quality of kitchen,Noise pollution,Quality of heat/AC system,Reputation of closest school,Size of home","15 min away,A Little,1963,200 square feet,Very Good,High,Moderate,Bad,700 square feet","25 min away,A Lot,1983,450 square feet,Bad,Very Low,Very Bad,Good,1000 square feet",1,1,16678,2022-06-17 19:16:28,104617
5dba287f9653e80734e335d7,ma_choice_v4_observers_pilot2,5dba287f9653e80734e335d7,2,1,-1,-1,"Size of yard,Quality of heat/AC system,Year building was built,Reputation of closest school,Quality of kitchen,Noise pollution,Amount of traffic,Closeness to parks,Size of home","100 square feet,Very Bad,1974,Very Bad,Moderate,Very Low,A Little,30 min away,1200 square feet","350 square feet,Very Good,2013,Good,Very Bad,High,A Lot,10 min away,700 square feet",0,0,15740,2022-06-17 19:16:30,104618
62850d0754941f925e1af397,ma_choice_v4_observers_pilot2,62850d0754941f925e1af397,61,0,-1,-1,"Reputation of closest school,Quality of kitchen,Size of yard,Size of home,Closeness to parks,Amount of traffic,Year building was built,Quality of heat/AC system,Noise pollution","Bad,Very Good,350 square feet,1300 square feet,10 min away,A Lot,1984,Very Bad,Very Low","Good,Moderate,0 square feet,700 square feet,30 min away,Very Little,1954,Very Good,Moderate",0,0,8732,2022-06-17 19:16:31,104619
6127df52d897b4da6d8ddda8,ma_choice_v4_observers_pilot2,6127df52d897b4da6d8ddda8,63,0,-1,-1,"Size of yard,Closeness to parks,Amount of traffic,Quality of kitchen,Size of home,Reputation of closest school,Quality of heat/AC system,Noise pollution,Year building was built","150 square feet,25 min away,A Little,Bad,700 square feet,Very Bad,Bad,Low,2010","400 square feet,15 min away,A Lot,Very Good,1500 square feet,Good,Good,Very High,1986",1,1,8346,2022-06-17 19:16:35,104620
601423ec0be39337dfd75b26,ma_choice_v4_observers_pilot2,601423ec0be39337dfd75b26,10,0,-1,-1,"Size of yard,Reputation of closest school,Closeness to parks,Size of home,Amount of traffic,Year building was built,Noise pollution,Quality of kitchen,Quality of heat/AC system","350 square feet,Very Good,10 min away,1300 square feet,A Moderate Amount,1954,Low,Very Good,Bad","500 square feet,Moderate,20 min away,1600 square feet,Very Little,2013,High,Bad,Very Good",1,1,12711,2022-06-17 19:16:42,104621
62850d0754941f925e1af397,ma_choice_v4_observers_pilot2,62850d0754941f925e1af397,62,0,-1,-1,"Closeness to parks,Quality of kitchen,Quality of heat/AC system,Reputation of closest school,Noise pollution,Size of home,Size of yard,Year building was built,Amount of traffic","15 min away,Bad,Very Good,Very Bad,Low,1100 square feet,300 square feet,1964,Very Little","25 min away,Good,Moderate,Good,High,700 square feet,50 square feet,2000,A Moderate Amount",0,0,10372,2022-06-17 19:16:43,104622
5dba287f9653e80734e335d7,ma_choice_v4_observers_pilot2,5dba287f9653e80734e335d7,3,1,-1,-1,"Size of home,Amount of traffic,Size of yard,Closeness to parks,Reputation of closest school,Quality of kitchen,Year building was built,Noise pollution,Quality of heat/AC system","900 square feet,Very Little,350 square feet,10 min away,Very Bad,Good,1995,Very Low,Moderate","600 square feet,A Lot,500 square feet,20 min away,Good,Very Bad,1950,Very High,Very Good",0,0,12097,2022-06-17 19:16:43,104623
6127df52d897b4da6d8ddda8,ma_choice_v4_observers_pilot2,6127df52d897b4da6d8ddda8,64,0,-1,-1,"Size of yard,Size of home,Amount of traffic,Quality of kitchen,Quality of heat/AC system,Closeness to parks,Reputation of closest school,Noise pollution,Year building was built","0 square feet,1700 square feet,A Lot,Good,Moderate,20 min away,Bad,Very High,1987","400 square feet,1200 square feet,A Little,Very Bad,Very Bad,10 min away,Good,Very Low,1959",0,0,9622,2022-06-17 19:16:46,104624
