subject,version,assignmentId,trial,attribute,rating,least_preferred,most_preferred,type,rt,rt2,full_or_lex,signed_weights,original_or_followup,stamp,id
6127df52d897b4da6d8ddda8,ma_choice_v4_observers_pilot2,6127df52d897b4da6d8ddda8,0,Quality of heat/AC system,1,,,ew_att_rating,11218,,,,,2022-06-17 19:28:55,26488
6127df52d897b4da6d8ddda8,ma_choice_v4_observers_pilot2,6127df52d897b4da6d8ddda8,1,Noise pollution,31,,,wad_att_rating,10073,,,,,2022-06-17 19:29:14,26489
6127df52d897b4da6d8ddda8,ma_choice_v4_observers_pilot2,6127df52d897b4da6d8ddda8,3,Year building was built,20,,,wad_att_rating,5150,,,,,2022-06-17 19:29:19,26490
6127df52d897b4da6d8ddda8,ma_choice_v4_observers_pilot2,6127df52d897b4da6d8ddda8,5,Quality of kitchen,56,,,wad_att_rating,7428,,,,,2022-06-17 19:29:26,26491
6127df52d897b4da6d8ddda8,ma_choice_v4_observers_pilot2,6127df52d897b4da6d8ddda8,7,Amount of traffic,13,,,wad_att_rating,4212,,,,,2022-06-17 19:29:30,26492
6127df52d897b4da6d8ddda8,ma_choice_v4_observers_pilot2,6127df52d897b4da6d8ddda8,0,Closeness to parks,19,,,wad_att_rating,3477,,,,,2022-06-17 19:29:34,26493
6127df52d897b4da6d8ddda8,ma_choice_v4_observers_pilot2,6127df52d897b4da6d8ddda8,2,Reputation of closest school,9,,,wad_att_rating,3153,,,,,2022-06-17 19:29:37,26494
6127df52d897b4da6d8ddda8,ma_choice_v4_observers_pilot2,6127df52d897b4da6d8ddda8,4,Size of yard,35,,,wad_att_rating,3671,,,,,2022-06-17 19:29:41,26495
6127df52d897b4da6d8ddda8,ma_choice_v4_observers_pilot2,6127df52d897b4da6d8ddda8,8,Size of home,36,,,wad_att_rating,3067,,,,,2022-06-17 19:29:44,26496
6127df52d897b4da6d8ddda8,ma_choice_v4_observers_pilot2,6127df52d897b4da6d8ddda8,6,Quality of heat/AC system,97,,,wad_att_rating,7845,,,,,2022-06-17 19:29:52,26497
6127df52d897b4da6d8ddda8,ma_choice_v4_observers_pilot2,6127df52d897b4da6d8ddda8,0,Quality of heat/AC system,1,,,lex_att_rating,3018,,,,,2022-06-17 19:29:59,26498
62850d0754941f925e1af397,ma_choice_v4_observers_pilot2,62850d0754941f925e1af397,0,Size of home,1,,,lex_att_rating,6836,,,,,2022-06-17 19:34:22,26499
62850d0754941f925e1af397,ma_choice_v4_observers_pilot2,62850d0754941f925e1af397,0,Closeness to parks,0,,,wad_att_rating,11859,,,,,2022-06-17 19:34:45,26500
62850d0754941f925e1af397,ma_choice_v4_observers_pilot2,62850d0754941f925e1af397,2,Reputation of closest school,12,,,wad_att_rating,6008,,,,,2022-06-17 19:34:51,26501
62850d0754941f925e1af397,ma_choice_v4_observers_pilot2,62850d0754941f925e1af397,7,Amount of traffic,13,,,wad_att_rating,3919,,,,,2022-06-17 19:34:55,26502
62850d0754941f925e1af397,ma_choice_v4_observers_pilot2,62850d0754941f925e1af397,3,Year building was built,49,,,wad_att_rating,4577,,,,,2022-06-17 19:34:59,26503
62850d0754941f925e1af397,ma_choice_v4_observers_pilot2,62850d0754941f925e1af397,4,Size of yard,13,,,wad_att_rating,4327,,,,,2022-06-17 19:35:03,26504
62850d0754941f925e1af397,ma_choice_v4_observers_pilot2,62850d0754941f925e1af397,1,Noise pollution,13,,,wad_att_rating,3152,,,,,2022-06-17 19:35:07,26505
62850d0754941f925e1af397,ma_choice_v4_observers_pilot2,62850d0754941f925e1af397,6,Quality of heat/AC system,25,,,wad_att_rating,2945,,,,,2022-06-17 19:35:10,26506
62850d0754941f925e1af397,ma_choice_v4_observers_pilot2,62850d0754941f925e1af397,8,Size of home,88,,,wad_att_rating,4531,,,,,2022-06-17 19:35:14,26507
62850d0754941f925e1af397,ma_choice_v4_observers_pilot2,62850d0754941f925e1af397,5,Quality of kitchen,12,,,wad_att_rating,2999,,,,,2022-06-17 19:35:17,26508
62850d0754941f925e1af397,ma_choice_v4_observers_pilot2,62850d0754941f925e1af397,0,Size of home,1,,,ew_att_rating,17369,,,,,2022-06-17 19:35:49,26509
62850d0754941f925e1af397,ma_choice_v4_observers_pilot2,62850d0754941f925e1af397,0,Reputation of closest school,1,,,ew_att_rating,17369,,,,,2022-06-17 19:35:49,26510
62850d0754941f925e1af397,ma_choice_v4_observers_pilot2,62850d0754941f925e1af397,0,Year building was built,1,,,ew_att_rating,17369,,,,,2022-06-17 19:35:49,26511
62850d0754941f925e1af397,ma_choice_v4_observers_pilot2,62850d0754941f925e1af397,5,Quality of kitchen,-1,Moderate,Very Bad,direction,5348,,,,,2022-06-17 19:37:28,26512
62850d0754941f925e1af397,ma_choice_v4_observers_pilot2,62850d0754941f925e1af397,2,Reputation of closest school,-1,Good,Very Bad,direction,2756,,,,,2022-06-17 19:37:35,26513
62850d0754941f925e1af397,ma_choice_v4_observers_pilot2,62850d0754941f925e1af397,7,Amount of traffic,-1,A Moderate Amount,A Lot,direction,3518,,,,,2022-06-17 19:37:57,26514
62850d0754941f925e1af397,ma_choice_v4_observers_pilot2,62850d0754941f925e1af397,3,Year building was built,-1,2020,1950,direction,2801,,,,,2022-06-17 19:38:06,26515
62850d0754941f925e1af397,ma_choice_v4_observers_pilot2,62850d0754941f925e1af397,4,Size of yard,-1,300 square feet,0 square feet,direction,2648,,,,,2022-06-17 19:38:19,26516
62850d0754941f925e1af397,ma_choice_v4_observers_pilot2,62850d0754941f925e1af397,8,Size of home,-1,1800 square feet,600 square feet,direction,1948,,,,,2022-06-17 19:38:27,26517
62850d0754941f925e1af397,ma_choice_v4_observers_pilot2,62850d0754941f925e1af397,0,Closeness to parks,-1,20 min away,30 min away,direction,3335,,,,,2022-06-17 19:38:40,26518
62850d0754941f925e1af397,ma_choice_v4_observers_pilot2,62850d0754941f925e1af397,1,Noise pollution,-1,Low,Very High,direction,2592,,,,,2022-06-17 19:38:55,26519
62850d0754941f925e1af397,ma_choice_v4_observers_pilot2,62850d0754941f925e1af397,6,Quality of heat/AC system,-1,Good,Very Bad,direction,2878,,,,,2022-06-17 19:39:04,26520
6127df52d897b4da6d8ddda8,ma_choice_v4_observers_pilot2,6127df52d897b4da6d8ddda8,3,Year building was built,-1,2020,1950,direction,2606,,,,,2022-06-17 19:40:33,26521
6127df52d897b4da6d8ddda8,ma_choice_v4_observers_pilot2,6127df52d897b4da6d8ddda8,1,Noise pollution,-1,Very Low,Very High,direction,3368,,,,,2022-06-17 19:40:42,26522
6127df52d897b4da6d8ddda8,ma_choice_v4_observers_pilot2,6127df52d897b4da6d8ddda8,8,Size of home,-1,1800 square feet,600 square feet,direction,2816,,,,,2022-06-17 19:40:48,26523
6127df52d897b4da6d8ddda8,ma_choice_v4_observers_pilot2,6127df52d897b4da6d8ddda8,4,Size of yard,-1,600 square feet,0 square feet,direction,1891,,,,,2022-06-17 19:40:52,26524
6127df52d897b4da6d8ddda8,ma_choice_v4_observers_pilot2,6127df52d897b4da6d8ddda8,7,Amount of traffic,-1,Very Little,A Lot,direction,1870,,,,,2022-06-17 19:41:00,26525
6127df52d897b4da6d8ddda8,ma_choice_v4_observers_pilot2,6127df52d897b4da6d8ddda8,6,Quality of heat/AC system,-1,Very Good,Very Bad,direction,3558,,,,,2022-06-17 19:41:07,26526
6127df52d897b4da6d8ddda8,ma_choice_v4_observers_pilot2,6127df52d897b4da6d8ddda8,0,Closeness to parks,-1,10 min away,30 min away,direction,4011,,,,,2022-06-17 19:41:17,26527
6127df52d897b4da6d8ddda8,ma_choice_v4_observers_pilot2,6127df52d897b4da6d8ddda8,2,Reputation of closest school,-1,Very Good,Very Bad,direction,3880,,,,,2022-06-17 19:41:35,26528
6127df52d897b4da6d8ddda8,ma_choice_v4_observers_pilot2,6127df52d897b4da6d8ddda8,5,Quality of kitchen,-1,Very Good,Very Bad,direction,1973,,,,,2022-06-17 19:41:53,26529
601423ec0be39337dfd75b26,ma_choice_v4_observers_pilot2,601423ec0be39337dfd75b26,0,Reputation of closest school,1,,,lex_att_rating,3662,,,,,2022-06-17 19:42:19,26530
601423ec0be39337dfd75b26,ma_choice_v4_observers_pilot2,601423ec0be39337dfd75b26,0,Quality of heat/AC system,1,,,ew_att_rating,20746,,,,,2022-06-17 19:42:53,26531
601423ec0be39337dfd75b26,ma_choice_v4_observers_pilot2,601423ec0be39337dfd75b26,0,Reputation of closest school,1,,,ew_att_rating,20746,,,,,2022-06-17 19:42:53,26532
601423ec0be39337dfd75b26,ma_choice_v4_observers_pilot2,601423ec0be39337dfd75b26,0,Size of home,1,,,ew_att_rating,20746,,,,,2022-06-17 19:42:53,26533
601423ec0be39337dfd75b26,ma_choice_v4_observers_pilot2,601423ec0be39337dfd75b26,7,Amount of traffic,0,,,wad_att_rating,3730,,,,,2022-06-17 19:43:02,26534
601423ec0be39337dfd75b26,ma_choice_v4_observers_pilot2,601423ec0be39337dfd75b26,0,Closeness to parks,0,,,wad_att_rating,5329,,,,,2022-06-17 19:43:07,26535
601423ec0be39337dfd75b26,ma_choice_v4_observers_pilot2,601423ec0be39337dfd75b26,4,Size of yard,12,,,wad_att_rating,5363,,,,,2022-06-17 19:43:13,26536
601423ec0be39337dfd75b26,ma_choice_v4_observers_pilot2,601423ec0be39337dfd75b26,8,Size of home,50,,,wad_att_rating,4797,,,,,2022-06-17 19:43:18,26537
601423ec0be39337dfd75b26,ma_choice_v4_observers_pilot2,601423ec0be39337dfd75b26,3,Year building was built,0,,,wad_att_rating,3096,,,,,2022-06-17 19:43:21,26538
601423ec0be39337dfd75b26,ma_choice_v4_observers_pilot2,601423ec0be39337dfd75b26,1,Noise pollution,0,,,wad_att_rating,3147,,,,,2022-06-17 19:43:24,26539
601423ec0be39337dfd75b26,ma_choice_v4_observers_pilot2,601423ec0be39337dfd75b26,6,Quality of heat/AC system,62,,,wad_att_rating,4614,,,,,2022-06-17 19:43:29,26540
601423ec0be39337dfd75b26,ma_choice_v4_observers_pilot2,601423ec0be39337dfd75b26,2,Reputation of closest school,100,,,wad_att_rating,3964,,,,,2022-06-17 19:43:33,26541
601423ec0be39337dfd75b26,ma_choice_v4_observers_pilot2,601423ec0be39337dfd75b26,5,Quality of kitchen,0,,,wad_att_rating,3180,,,,,2022-06-17 19:43:36,26542
601423ec0be39337dfd75b26,ma_choice_v4_observers_pilot2,601423ec0be39337dfd75b26,3,Year building was built,-1,2020,1950,direction,4265,,,,,2022-06-17 19:45:23,26543
601423ec0be39337dfd75b26,ma_choice_v4_observers_pilot2,601423ec0be39337dfd75b26,6,Quality of heat/AC system,-1,Good,Very Bad,direction,2513,,,,,2022-06-17 19:45:36,26544
601423ec0be39337dfd75b26,ma_choice_v4_observers_pilot2,601423ec0be39337dfd75b26,7,Amount of traffic,-1,Very Little,A Lot,direction,2014,,,,,2022-06-17 19:45:44,26545
601423ec0be39337dfd75b26,ma_choice_v4_observers_pilot2,601423ec0be39337dfd75b26,4,Size of yard,-1,600 square feet,0 square feet,direction,2633,,,,,2022-06-17 19:45:51,26546
601423ec0be39337dfd75b26,ma_choice_v4_observers_pilot2,601423ec0be39337dfd75b26,1,Noise pollution,-1,Very Low,Very High,direction,2413,,,,,2022-06-17 19:45:57,26547
601423ec0be39337dfd75b26,ma_choice_v4_observers_pilot2,601423ec0be39337dfd75b26,0,Closeness to parks,-1,10 min away,30 min away,direction,1946,,,,,2022-06-17 19:46:02,26548
601423ec0be39337dfd75b26,ma_choice_v4_observers_pilot2,601423ec0be39337dfd75b26,5,Quality of kitchen,-1,Very Good,Very Bad,direction,2430,,,,,2022-06-17 19:46:08,26549
601423ec0be39337dfd75b26,ma_choice_v4_observers_pilot2,601423ec0be39337dfd75b26,2,Reputation of closest school,-1,Very Good,Very Bad,direction,1964,,,,,2022-06-17 19:46:14,26550
601423ec0be39337dfd75b26,ma_choice_v4_observers_pilot2,601423ec0be39337dfd75b26,8,Size of home,-1,1800 square feet,600 square feet,direction,2414,,,,,2022-06-17 19:46:22,26551
5dba287f9653e80734e335d7,ma_choice_v4_observers_pilot2,5dba287f9653e80734e335d7,0,Quality of heat/AC system,1,,,lex_att_rating,18647,,,,,2022-06-17 19:54:32,26552
5dba287f9653e80734e335d7,ma_choice_v4_observers_pilot2,5dba287f9653e80734e335d7,5,Quality of kitchen,74,,,wad_att_rating,6657,,,,,2022-06-17 19:54:48,26553
5dba287f9653e80734e335d7,ma_choice_v4_observers_pilot2,5dba287f9653e80734e335d7,2,Reputation of closest school,13,,,wad_att_rating,7084,,,,,2022-06-17 19:54:56,26554
607134f478e13587bd89e13a,ma_choice_v4_observers_pilot2,607134f478e13587bd89e13a,7,Amount of traffic,0,,,wad_att_rating,4278,,,,,2022-06-17 19:54:57,26555
5dba287f9653e80734e335d7,ma_choice_v4_observers_pilot2,5dba287f9653e80734e335d7,1,Noise pollution,87,,,wad_att_rating,6800,,,,,2022-06-17 19:55:02,26556
607134f478e13587bd89e13a,ma_choice_v4_observers_pilot2,607134f478e13587bd89e13a,8,Size of home,0,,,wad_att_rating,5830,,,,,2022-06-17 19:55:02,26557
607134f478e13587bd89e13a,ma_choice_v4_observers_pilot2,607134f478e13587bd89e13a,1,Noise pollution,0,,,wad_att_rating,2462,,,,,2022-06-17 19:55:05,26558
5dba287f9653e80734e335d7,ma_choice_v4_observers_pilot2,5dba287f9653e80734e335d7,4,Size of yard,75,,,wad_att_rating,4589,,,,,2022-06-17 19:55:07,26559
607134f478e13587bd89e13a,ma_choice_v4_observers_pilot2,607134f478e13587bd89e13a,3,Year building was built,0,,,wad_att_rating,2679,,,,,2022-06-17 19:55:08,26560
607134f478e13587bd89e13a,ma_choice_v4_observers_pilot2,607134f478e13587bd89e13a,2,Reputation of closest school,0,,,wad_att_rating,2695,,,,,2022-06-17 19:55:10,26561
5dba287f9653e80734e335d7,ma_choice_v4_observers_pilot2,5dba287f9653e80734e335d7,3,Year building was built,0,,,wad_att_rating,5984,,,,,2022-06-17 19:55:13,26562
607134f478e13587bd89e13a,ma_choice_v4_observers_pilot2,607134f478e13587bd89e13a,0,Closeness to parks,0,,,wad_att_rating,2946,,,,,2022-06-17 19:55:13,26563
607134f478e13587bd89e13a,ma_choice_v4_observers_pilot2,607134f478e13587bd89e13a,5,Quality of kitchen,0,,,wad_att_rating,2580,,,,,2022-06-17 19:55:16,26564
5dba287f9653e80734e335d7,ma_choice_v4_observers_pilot2,5dba287f9653e80734e335d7,6,Quality of heat/AC system,89,,,wad_att_rating,4081,,,,,2022-06-17 19:55:17,26565
607134f478e13587bd89e13a,ma_choice_v4_observers_pilot2,607134f478e13587bd89e13a,4,Size of yard,0,,,wad_att_rating,2913,,,,,2022-06-17 19:55:19,26566
5dba287f9653e80734e335d7,ma_choice_v4_observers_pilot2,5dba287f9653e80734e335d7,0,Closeness to parks,0,,,wad_att_rating,4813,,,,,2022-06-17 19:55:22,26567
607134f478e13587bd89e13a,ma_choice_v4_observers_pilot2,607134f478e13587bd89e13a,6,Quality of heat/AC system,100,,,wad_att_rating,2980,,,,,2022-06-17 19:55:22,26568
5dba287f9653e80734e335d7,ma_choice_v4_observers_pilot2,5dba287f9653e80734e335d7,8,Size of home,83,,,wad_att_rating,5560,,,,,2022-06-17 19:55:27,26569
5dba287f9653e80734e335d7,ma_choice_v4_observers_pilot2,5dba287f9653e80734e335d7,7,Amount of traffic,69,,,wad_att_rating,6552,,,,,2022-06-17 19:55:34,26570
607134f478e13587bd89e13a,ma_choice_v4_observers_pilot2,607134f478e13587bd89e13a,0,Quality of heat/AC system,1,,,lex_att_rating,12418,,,,,2022-06-17 19:55:43,26571
607134f478e13587bd89e13a,ma_choice_v4_observers_pilot2,607134f478e13587bd89e13a,0,Quality of heat/AC system,1,,,ew_att_rating,4305,,,,,2022-06-17 19:55:59,26572
5dba287f9653e80734e335d7,ma_choice_v4_observers_pilot2,5dba287f9653e80734e335d7,0,Noise pollution,1,,,ew_att_rating,17703,,,,,2022-06-17 19:56:02,26573
5dba287f9653e80734e335d7,ma_choice_v4_observers_pilot2,5dba287f9653e80734e335d7,0,Quality of kitchen,1,,,ew_att_rating,17703,,,,,2022-06-17 19:56:02,26574
5dba287f9653e80734e335d7,ma_choice_v4_observers_pilot2,5dba287f9653e80734e335d7,0,Size of yard,1,,,ew_att_rating,17703,,,,,2022-06-17 19:56:02,26575
5dba287f9653e80734e335d7,ma_choice_v4_observers_pilot2,5dba287f9653e80734e335d7,0,Quality of heat/AC system,1,,,ew_att_rating,17703,,,,,2022-06-17 19:56:02,26576
5dba287f9653e80734e335d7,ma_choice_v4_observers_pilot2,5dba287f9653e80734e335d7,0,Amount of traffic,1,,,ew_att_rating,17703,,,,,2022-06-17 19:56:02,26577
5dba287f9653e80734e335d7,ma_choice_v4_observers_pilot2,5dba287f9653e80734e335d7,0,Size of home,1,,,ew_att_rating,17703,,,,,2022-06-17 19:56:02,26578
607134f478e13587bd89e13a,ma_choice_v4_observers_pilot2,607134f478e13587bd89e13a,3,Year building was built,-1,2020,1950,direction,2656,,,,,2022-06-17 19:56:53,26579
607134f478e13587bd89e13a,ma_choice_v4_observers_pilot2,607134f478e13587bd89e13a,7,Amount of traffic,-1,Very Little,A Lot,direction,2795,,,,,2022-06-17 19:57:01,26580
607134f478e13587bd89e13a,ma_choice_v4_observers_pilot2,607134f478e13587bd89e13a,4,Size of yard,-1,600 square feet,0 square feet,direction,2095,,,,,2022-06-17 19:57:07,26581
607134f478e13587bd89e13a,ma_choice_v4_observers_pilot2,607134f478e13587bd89e13a,0,Closeness to parks,-1,10 min away,30 min away,direction,2625,,,,,2022-06-17 19:57:14,26582
607134f478e13587bd89e13a,ma_choice_v4_observers_pilot2,607134f478e13587bd89e13a,2,Reputation of closest school,-1,Very Good,Very Bad,direction,1878,,,,,2022-06-17 19:57:19,26583
5dba287f9653e80734e335d7,ma_choice_v4_observers_pilot2,5dba287f9653e80734e335d7,8,Size of home,-1,1800 square feet,600 square feet,direction,4791,,,,,2022-06-17 19:57:23,26584
607134f478e13587bd89e13a,ma_choice_v4_observers_pilot2,607134f478e13587bd89e13a,6,Quality of heat/AC system,-1,Very Good,Very Bad,direction,2092,,,,,2022-06-17 19:57:24,26585
607134f478e13587bd89e13a,ma_choice_v4_observers_pilot2,607134f478e13587bd89e13a,8,Size of home,-1,1800 square feet,600 square feet,direction,1440,,,,,2022-06-17 19:57:28,26586
607134f478e13587bd89e13a,ma_choice_v4_observers_pilot2,607134f478e13587bd89e13a,1,Noise pollution,-1,Very Low,Very High,direction,1756,,,,,2022-06-17 19:57:33,26587
5dba287f9653e80734e335d7,ma_choice_v4_observers_pilot2,5dba287f9653e80734e335d7,0,Closeness to parks,-1,10 min away,30 min away,direction,4097,,,,,2022-06-17 19:57:35,26588
607134f478e13587bd89e13a,ma_choice_v4_observers_pilot2,607134f478e13587bd89e13a,5,Quality of kitchen,-1,Very Good,Very Bad,direction,1790,,,,,2022-06-17 19:57:37,26589
5dba287f9653e80734e335d7,ma_choice_v4_observers_pilot2,5dba287f9653e80734e335d7,1,Noise pollution,-1,Very Low,Very High,direction,3806,,,,,2022-06-17 19:57:43,26590
5fbd371dc57ae80a38ba00c2,ma_choice_v4_observers_pilot2,5fbd371dc57ae80a38ba00c2,0,Quality of kitchen,1,,,ew_att_rating,11791,,,,,2022-06-17 19:57:57,26591
5fbd371dc57ae80a38ba00c2,ma_choice_v4_observers_pilot2,5fbd371dc57ae80a38ba00c2,0,Quality of heat/AC system,1,,,ew_att_rating,11791,,,,,2022-06-17 19:57:57,26592
5fbd371dc57ae80a38ba00c2,ma_choice_v4_observers_pilot2,5fbd371dc57ae80a38ba00c2,0,Reputation of closest school,1,,,ew_att_rating,11791,,,,,2022-06-17 19:57:57,26593
5dba287f9653e80734e335d7,ma_choice_v4_observers_pilot2,5dba287f9653e80734e335d7,3,Year building was built,-1,2020,1950,direction,4628,,,,,2022-06-17 19:57:59,26594
5dba287f9653e80734e335d7,ma_choice_v4_observers_pilot2,5dba287f9653e80734e335d7,7,Amount of traffic,-1,Very Little,A Lot,direction,4577,,,,,2022-06-17 19:58:10,26595
5dba287f9653e80734e335d7,ma_choice_v4_observers_pilot2,5dba287f9653e80734e335d7,4,Size of yard,-1,600 square feet,0 square feet,direction,4977,,,,,2022-06-17 19:58:19,26596
5fbd371dc57ae80a38ba00c2,ma_choice_v4_observers_pilot2,5fbd371dc57ae80a38ba00c2,0,Size of yard,1,,,lex_att_rating,8964,,,,,2022-06-17 19:58:25,26597
5dba287f9653e80734e335d7,ma_choice_v4_observers_pilot2,5dba287f9653e80734e335d7,6,Quality of heat/AC system,-1,Very Good,Very Bad,direction,6009,,,,,2022-06-17 19:58:30,26598
5dba287f9653e80734e335d7,ma_choice_v4_observers_pilot2,5dba287f9653e80734e335d7,2,Reputation of closest school,-1,Very Good,Very Bad,direction,3091,,,,,2022-06-17 19:58:46,26599
5dba287f9653e80734e335d7,ma_choice_v4_observers_pilot2,5dba287f9653e80734e335d7,5,Quality of kitchen,-1,Very Good,Very Bad,direction,2669,,,,,2022-06-17 19:58:52,26600
5fbd371dc57ae80a38ba00c2,ma_choice_v4_observers_pilot2,5fbd371dc57ae80a38ba00c2,4,Size of yard,86,,,wad_att_rating,9528,,,,,2022-06-17 19:58:56,26601
5fbd371dc57ae80a38ba00c2,ma_choice_v4_observers_pilot2,5fbd371dc57ae80a38ba00c2,2,Reputation of closest school,51,,,wad_att_rating,4062,,,,,2022-06-17 19:59:00,26602
5fbd371dc57ae80a38ba00c2,ma_choice_v4_observers_pilot2,5fbd371dc57ae80a38ba00c2,3,Year building was built,37,,,wad_att_rating,9478,,,,,2022-06-17 19:59:10,26603
5fbd371dc57ae80a38ba00c2,ma_choice_v4_observers_pilot2,5fbd371dc57ae80a38ba00c2,1,Noise pollution,51,,,wad_att_rating,5846,,,,,2022-06-17 19:59:16,26604
5fbd371dc57ae80a38ba00c2,ma_choice_v4_observers_pilot2,5fbd371dc57ae80a38ba00c2,7,Amount of traffic,62,,,wad_att_rating,4846,,,,,2022-06-17 19:59:20,26605
5fbd371dc57ae80a38ba00c2,ma_choice_v4_observers_pilot2,5fbd371dc57ae80a38ba00c2,5,Quality of kitchen,74,,,wad_att_rating,4745,,,,,2022-06-17 19:59:25,26606
5fbd371dc57ae80a38ba00c2,ma_choice_v4_observers_pilot2,5fbd371dc57ae80a38ba00c2,0,Closeness to parks,85,,,wad_att_rating,4146,,,,,2022-06-17 19:59:29,26607
5fbd371dc57ae80a38ba00c2,ma_choice_v4_observers_pilot2,5fbd371dc57ae80a38ba00c2,6,Quality of heat/AC system,87,,,wad_att_rating,4346,,,,,2022-06-17 19:59:34,26608
5fbd371dc57ae80a38ba00c2,ma_choice_v4_observers_pilot2,5fbd371dc57ae80a38ba00c2,8,Size of home,38,,,wad_att_rating,7645,,,,,2022-06-17 19:59:41,26609
5fbd371dc57ae80a38ba00c2,ma_choice_v4_observers_pilot2,5fbd371dc57ae80a38ba00c2,6,Quality of heat/AC system,-1,Moderate,Bad,direction,4796,,,,,2022-06-17 20:01:15,26610
5fbd371dc57ae80a38ba00c2,ma_choice_v4_observers_pilot2,5fbd371dc57ae80a38ba00c2,7,Amount of traffic,-1,Very Little,A Lot,direction,4645,,,,,2022-06-17 20:01:25,26611
5fbd371dc57ae80a38ba00c2,ma_choice_v4_observers_pilot2,5fbd371dc57ae80a38ba00c2,0,Closeness to parks,-1,20 min away,15 min away,direction,3845,,,,,2022-06-17 20:01:34,26612
5fbd371dc57ae80a38ba00c2,ma_choice_v4_observers_pilot2,5fbd371dc57ae80a38ba00c2,3,Year building was built,-1,1985,2020,direction,3762,,,,,2022-06-17 20:01:43,26613
5fbd371dc57ae80a38ba00c2,ma_choice_v4_observers_pilot2,5fbd371dc57ae80a38ba00c2,8,Size of home,-1,1200 square feet,600 square feet,direction,2713,,,,,2022-06-17 20:01:50,26614
5fbd371dc57ae80a38ba00c2,ma_choice_v4_observers_pilot2,5fbd371dc57ae80a38ba00c2,5,Quality of kitchen,-1,Very Good,Very Bad,direction,2162,,,,,2022-06-17 20:01:58,26615
62acc04d0a7788636b0e9915,ma_choice_v4_observers_pilot2,62acc04d0a7788636b0e9915,0,Noise pollution,1,,,ew_att_rating,44647,,,,,2022-06-17 20:01:58,26616
62acc04d0a7788636b0e9915,ma_choice_v4_observers_pilot2,62acc04d0a7788636b0e9915,0,Year building was built,1,,,ew_att_rating,44647,,,,,2022-06-17 20:01:58,26617
62acc04d0a7788636b0e9915,ma_choice_v4_observers_pilot2,62acc04d0a7788636b0e9915,0,Amount of traffic,1,,,ew_att_rating,44647,,,,,2022-06-17 20:01:58,26618
5fbd371dc57ae80a38ba00c2,ma_choice_v4_observers_pilot2,5fbd371dc57ae80a38ba00c2,1,Noise pollution,-1,Low,High,direction,1896,,,,,2022-06-17 20:02:07,26619
5fbd371dc57ae80a38ba00c2,ma_choice_v4_observers_pilot2,5fbd371dc57ae80a38ba00c2,4,Size of yard,-1,0 square feet,600 square feet,direction,2312,,,,,2022-06-17 20:02:15,26620
62acc04d0a7788636b0e9915,ma_choice_v4_observers_pilot2,62acc04d0a7788636b0e9915,0,Noise pollution,1,,,lex_att_rating,2428,,,,,2022-06-17 20:02:17,26621
5fbd371dc57ae80a38ba00c2,ma_choice_v4_observers_pilot2,5fbd371dc57ae80a38ba00c2,2,Reputation of closest school,-1,Good,Bad,direction,2862,,,,,2022-06-17 20:02:26,26622
62acc04d0a7788636b0e9915,ma_choice_v4_observers_pilot2,62acc04d0a7788636b0e9915,1,Noise pollution,88,,,wad_att_rating,11099,,,,,2022-06-17 20:02:39,26623
62acc04d0a7788636b0e9915,ma_choice_v4_observers_pilot2,62acc04d0a7788636b0e9915,7,Amount of traffic,62,,,wad_att_rating,6624,,,,,2022-06-17 20:02:45,26624
62acc04d0a7788636b0e9915,ma_choice_v4_observers_pilot2,62acc04d0a7788636b0e9915,0,Closeness to parks,25,,,wad_att_rating,8638,,,,,2022-06-17 20:02:54,26625
62acc04d0a7788636b0e9915,ma_choice_v4_observers_pilot2,62acc04d0a7788636b0e9915,4,Size of yard,25,,,wad_att_rating,9943,,,,,2022-06-17 20:03:04,26626
62acc04d0a7788636b0e9915,ma_choice_v4_observers_pilot2,62acc04d0a7788636b0e9915,8,Size of home,37,,,wad_att_rating,8874,,,,,2022-06-17 20:03:13,26627
62acc04d0a7788636b0e9915,ma_choice_v4_observers_pilot2,62acc04d0a7788636b0e9915,3,Year building was built,62,,,wad_att_rating,4903,,,,,2022-06-17 20:03:18,26628
62acc04d0a7788636b0e9915,ma_choice_v4_observers_pilot2,62acc04d0a7788636b0e9915,2,Reputation of closest school,25,,,wad_att_rating,6962,,,,,2022-06-17 20:03:25,26629
62acc04d0a7788636b0e9915,ma_choice_v4_observers_pilot2,62acc04d0a7788636b0e9915,5,Quality of kitchen,12,,,wad_att_rating,8537,,,,,2022-06-17 20:03:33,26630
62acc04d0a7788636b0e9915,ma_choice_v4_observers_pilot2,62acc04d0a7788636b0e9915,6,Quality of heat/AC system,12,,,wad_att_rating,7187,,,,,2022-06-17 20:03:41,26631
60db56b9d2a00bf1e356167a,ma_choice_v4_observers_pilot2,60db56b9d2a00bf1e356167a,0,Closeness to parks,1,,,lex_att_rating,5503,,,,,2022-06-17 20:04:32,26632
62ac8c4bf1245233d71d0fd6,ma_choice_v4_observers_pilot2,62ac8c4bf1245233d71d0fd6,0,Noise pollution,1,,,ew_att_rating,11199,,,,,2022-06-17 20:04:51,26633
62ac8c4bf1245233d71d0fd6,ma_choice_v4_observers_pilot2,62ac8c4bf1245233d71d0fd6,0,Reputation of closest school,1,,,ew_att_rating,11199,,,,,2022-06-17 20:04:51,26634
62ac8c4bf1245233d71d0fd6,ma_choice_v4_observers_pilot2,62ac8c4bf1245233d71d0fd6,0,Size of home,1,,,ew_att_rating,11199,,,,,2022-06-17 20:04:51,26635
62ac8c4bf1245233d71d0fd6,ma_choice_v4_observers_pilot2,62ac8c4bf1245233d71d0fd6,0,Amount of traffic,1,,,ew_att_rating,11199,,,,,2022-06-17 20:04:51,26636
62ac8c4bf1245233d71d0fd6,ma_choice_v4_observers_pilot2,62ac8c4bf1245233d71d0fd6,0,Size of home,1,,,lex_att_rating,3794,,,,,2022-06-17 20:04:58,26637
62ac8c4bf1245233d71d0fd6,ma_choice_v4_observers_pilot2,62ac8c4bf1245233d71d0fd6,6,Quality of heat/AC system,25,,,wad_att_rating,3579,,,,,2022-06-17 20:05:06,26638
62ac8c4bf1245233d71d0fd6,ma_choice_v4_observers_pilot2,62ac8c4bf1245233d71d0fd6,5,Quality of kitchen,12,,,wad_att_rating,2545,,,,,2022-06-17 20:05:08,26639
62ac8c4bf1245233d71d0fd6,ma_choice_v4_observers_pilot2,62ac8c4bf1245233d71d0fd6,4,Size of yard,22,,,wad_att_rating,2888,,,,,2022-06-17 20:05:11,26640
62ac8c4bf1245233d71d0fd6,ma_choice_v4_observers_pilot2,62ac8c4bf1245233d71d0fd6,1,Noise pollution,49,,,wad_att_rating,3523,,,,,2022-06-17 20:05:15,26641
62ac8c4bf1245233d71d0fd6,ma_choice_v4_observers_pilot2,62ac8c4bf1245233d71d0fd6,2,Reputation of closest school,63,,,wad_att_rating,2911,,,,,2022-06-17 20:05:18,26642
62ac8c4bf1245233d71d0fd6,ma_choice_v4_observers_pilot2,62ac8c4bf1245233d71d0fd6,8,Size of home,69,,,wad_att_rating,2368,,,,,2022-06-17 20:05:20,26643
62acc04d0a7788636b0e9915,ma_choice_v4_observers_pilot2,62acc04d0a7788636b0e9915,0,Closeness to parks,-1,20 min away,30 min away,direction,5995,,,,,2022-06-17 20:05:22,26644
62ac8c4bf1245233d71d0fd6,ma_choice_v4_observers_pilot2,62ac8c4bf1245233d71d0fd6,3,Year building was built,9,,,wad_att_rating,3091,,,,,2022-06-17 20:05:23,26645
62ac8c4bf1245233d71d0fd6,ma_choice_v4_observers_pilot2,62ac8c4bf1245233d71d0fd6,0,Closeness to parks,9,,,wad_att_rating,1769,,,,,2022-06-17 20:05:25,26646
62ac8c4bf1245233d71d0fd6,ma_choice_v4_observers_pilot2,62ac8c4bf1245233d71d0fd6,7,Amount of traffic,24,,,wad_att_rating,3355,,,,,2022-06-17 20:05:28,26647
62acc04d0a7788636b0e9915,ma_choice_v4_observers_pilot2,62acc04d0a7788636b0e9915,3,Year building was built,-1,2020,1950,direction,3441,,,,,2022-06-17 20:05:31,26648
62acc04d0a7788636b0e9915,ma_choice_v4_observers_pilot2,62acc04d0a7788636b0e9915,2,Reputation of closest school,-1,Good,Very Bad,direction,2418,,,,,2022-06-17 20:05:41,26649
62acc04d0a7788636b0e9915,ma_choice_v4_observers_pilot2,62acc04d0a7788636b0e9915,4,Size of yard,-1,600 square feet,0 square feet,direction,9101,,,,,2022-06-17 20:05:55,26650
62acc04d0a7788636b0e9915,ma_choice_v4_observers_pilot2,62acc04d0a7788636b0e9915,6,Quality of heat/AC system,-1,Good,Very Bad,direction,2675,,,,,2022-06-17 20:06:11,26651
60db56b9d2a00bf1e356167a,ma_choice_v4_observers_pilot2,60db56b9d2a00bf1e356167a,0,Closeness to parks,1,,,ew_att_rating,86641,,,,,2022-06-17 20:06:18,26652
60db56b9d2a00bf1e356167a,ma_choice_v4_observers_pilot2,60db56b9d2a00bf1e356167a,0,Size of home,1,,,ew_att_rating,86641,,,,,2022-06-17 20:06:18,26653
60db56b9d2a00bf1e356167a,ma_choice_v4_observers_pilot2,60db56b9d2a00bf1e356167a,0,Size of yard,1,,,ew_att_rating,86641,,,,,2022-06-17 20:06:18,26654
62acc04d0a7788636b0e9915,ma_choice_v4_observers_pilot2,62acc04d0a7788636b0e9915,5,Quality of kitchen,-1,Moderate,Very Bad,direction,2068,,,,,2022-06-17 20:06:18,26655
62acc04d0a7788636b0e9915,ma_choice_v4_observers_pilot2,62acc04d0a7788636b0e9915,7,Amount of traffic,-1,A Little,A Lot,direction,2900,,,,,2022-06-17 20:06:28,26656
60db56b9d2a00bf1e356167a,ma_choice_v4_observers_pilot2,60db56b9d2a00bf1e356167a,8,Size of home,75,,,wad_att_rating,8223,,,,,2022-06-17 20:06:32,26657
62acc04d0a7788636b0e9915,ma_choice_v4_observers_pilot2,62acc04d0a7788636b0e9915,1,Noise pollution,-1,Very Low,Very High,direction,3250,,,,,2022-06-17 20:06:36,26658
62ac8c4bf1245233d71d0fd6,ma_choice_v4_observers_pilot2,62ac8c4bf1245233d71d0fd6,2,Reputation of closest school,-1,Very Good,Very Bad,direction,2476,,,,,2022-06-17 20:06:39,26659
60db56b9d2a00bf1e356167a,ma_choice_v4_observers_pilot2,60db56b9d2a00bf1e356167a,1,Noise pollution,0,,,wad_att_rating,7327,,,,,2022-06-17 20:06:39,26660
62acc04d0a7788636b0e9915,ma_choice_v4_observers_pilot2,62acc04d0a7788636b0e9915,8,Size of home,-1,1800 square feet,600 square feet,direction,2777,,,,,2022-06-17 20:06:42,26661
60db56b9d2a00bf1e356167a,ma_choice_v4_observers_pilot2,60db56b9d2a00bf1e356167a,2,Reputation of closest school,0,,,wad_att_rating,3151,,,,,2022-06-17 20:06:43,26662
62ac8c4bf1245233d71d0fd6,ma_choice_v4_observers_pilot2,62ac8c4bf1245233d71d0fd6,7,Amount of traffic,-1,Very Little,A Lot,direction,1809,,,,,2022-06-17 20:06:44,26663
60db56b9d2a00bf1e356167a,ma_choice_v4_observers_pilot2,60db56b9d2a00bf1e356167a,4,Size of yard,75,,,wad_att_rating,4959,,,,,2022-06-17 20:06:48,26664
62ac8c4bf1245233d71d0fd6,ma_choice_v4_observers_pilot2,62ac8c4bf1245233d71d0fd6,3,Year building was built,-1,1985,2020,direction,3321,,,,,2022-06-17 20:06:53,26665
60db56b9d2a00bf1e356167a,ma_choice_v4_observers_pilot2,60db56b9d2a00bf1e356167a,3,Year building was built,24,,,wad_att_rating,10567,,,,,2022-06-17 20:06:58,26666
62ac8c4bf1245233d71d0fd6,ma_choice_v4_observers_pilot2,62ac8c4bf1245233d71d0fd6,1,Noise pollution,-1,Very Low,Very High,direction,1840,,,,,2022-06-17 20:07:01,26667
60db56b9d2a00bf1e356167a,ma_choice_v4_observers_pilot2,60db56b9d2a00bf1e356167a,7,Amount of traffic,0,,,wad_att_rating,4175,,,,,2022-06-17 20:07:02,26668
62ac8c4bf1245233d71d0fd6,ma_choice_v4_observers_pilot2,62ac8c4bf1245233d71d0fd6,6,Quality of heat/AC system,-1,Very Good,Very Bad,direction,1560,,,,,2022-06-17 20:07:06,26669
60db56b9d2a00bf1e356167a,ma_choice_v4_observers_pilot2,60db56b9d2a00bf1e356167a,5,Quality of kitchen,0,,,wad_att_rating,4311,,,,,2022-06-17 20:07:07,26670
62ac8c4bf1245233d71d0fd6,ma_choice_v4_observers_pilot2,62ac8c4bf1245233d71d0fd6,4,Size of yard,-1,300 square feet,0 square feet,direction,1701,,,,,2022-06-17 20:07:13,26671
60db56b9d2a00bf1e356167a,ma_choice_v4_observers_pilot2,60db56b9d2a00bf1e356167a,6,Quality of heat/AC system,50,,,wad_att_rating,10375,,,,,2022-06-17 20:07:17,26672
62ac8c4bf1245233d71d0fd6,ma_choice_v4_observers_pilot2,62ac8c4bf1245233d71d0fd6,5,Quality of kitchen,-1,Very Good,Very Bad,direction,1409,,,,,2022-06-17 20:07:19,26673
60db56b9d2a00bf1e356167a,ma_choice_v4_observers_pilot2,60db56b9d2a00bf1e356167a,0,Closeness to parks,87,,,wad_att_rating,4591,,,,,2022-06-17 20:07:22,26674
62ac8c4bf1245233d71d0fd6,ma_choice_v4_observers_pilot2,62ac8c4bf1245233d71d0fd6,0,Closeness to parks,-1,10 min away,30 min away,direction,1220,,,,,2022-06-17 20:07:23,26675
62ac8c4bf1245233d71d0fd6,ma_choice_v4_observers_pilot2,62ac8c4bf1245233d71d0fd6,8,Size of home,-1,1800 square feet,600 square feet,direction,1796,,,,,2022-06-17 20:07:32,26676
62ac7ad94cc5e1db068a442c,ma_choice_v4_observers_pilot2,62ac7ad94cc5e1db068a442c,0,Year building was built,1,,,ew_att_rating,17624,,,,,2022-06-17 20:12:33,26677
62ac7ad94cc5e1db068a442c,ma_choice_v4_observers_pilot2,62ac7ad94cc5e1db068a442c,0,Reputation of closest school,1,,,ew_att_rating,17624,,,,,2022-06-17 20:12:33,26678
62ac7ad94cc5e1db068a442c,ma_choice_v4_observers_pilot2,62ac7ad94cc5e1db068a442c,0,Size of home,1,,,ew_att_rating,17624,,,,,2022-06-17 20:12:33,26679
62ac7ad94cc5e1db068a442c,ma_choice_v4_observers_pilot2,62ac7ad94cc5e1db068a442c,0,Quality of heat/AC system,1,,,ew_att_rating,17624,,,,,2022-06-17 20:12:33,26680
62ac7ad94cc5e1db068a442c,ma_choice_v4_observers_pilot2,62ac7ad94cc5e1db068a442c,4,Size of yard,38,,,wad_att_rating,5147,,,,,2022-06-17 20:12:41,26681
62ac7ad94cc5e1db068a442c,ma_choice_v4_observers_pilot2,62ac7ad94cc5e1db068a442c,2,Reputation of closest school,75,,,wad_att_rating,2578,,,,,2022-06-17 20:12:44,26682
6234c8127a4c8c2c2c0ac967,ma_choice_v4_observers_pilot2,6234c8127a4c8c2c2c0ac967,0,Size of home,1,,,lex_att_rating,8000,,,,,2022-06-17 20:12:45,26683
62ac7ad94cc5e1db068a442c,ma_choice_v4_observers_pilot2,62ac7ad94cc5e1db068a442c,5,Quality of kitchen,12,,,wad_att_rating,2255,,,,,2022-06-17 20:12:46,26684
62ac7ad94cc5e1db068a442c,ma_choice_v4_observers_pilot2,62ac7ad94cc5e1db068a442c,6,Quality of heat/AC system,88,,,wad_att_rating,3634,,,,,2022-06-17 20:12:50,26685
62ac7ad94cc5e1db068a442c,ma_choice_v4_observers_pilot2,62ac7ad94cc5e1db068a442c,3,Year building was built,75,,,wad_att_rating,2758,,,,,2022-06-17 20:12:52,26686
62ac7ad94cc5e1db068a442c,ma_choice_v4_observers_pilot2,62ac7ad94cc5e1db068a442c,8,Size of home,90,,,wad_att_rating,2855,,,,,2022-06-17 20:12:55,26687
62ac7ad94cc5e1db068a442c,ma_choice_v4_observers_pilot2,62ac7ad94cc5e1db068a442c,1,Noise pollution,41,,,wad_att_rating,3633,,,,,2022-06-17 20:12:59,26688
62ac7ad94cc5e1db068a442c,ma_choice_v4_observers_pilot2,62ac7ad94cc5e1db068a442c,7,Amount of traffic,34,,,wad_att_rating,5987,,,,,2022-06-17 20:13:05,26689
62ac7ad94cc5e1db068a442c,ma_choice_v4_observers_pilot2,62ac7ad94cc5e1db068a442c,0,Closeness to parks,2,,,wad_att_rating,4174,,,,,2022-06-17 20:13:09,26690
6234c8127a4c8c2c2c0ac967,ma_choice_v4_observers_pilot2,6234c8127a4c8c2c2c0ac967,6,Quality of heat/AC system,50,,,wad_att_rating,14716,,,,,2022-06-17 20:13:13,26691
6234c8127a4c8c2c2c0ac967,ma_choice_v4_observers_pilot2,6234c8127a4c8c2c2c0ac967,0,Closeness to parks,50,,,wad_att_rating,5648,,,,,2022-06-17 20:13:19,26692
62ac7ad94cc5e1db068a442c,ma_choice_v4_observers_pilot2,62ac7ad94cc5e1db068a442c,0,Size of home,1,,,lex_att_rating,7113,,,,,2022-06-17 20:13:20,26693
6234c8127a4c8c2c2c0ac967,ma_choice_v4_observers_pilot2,6234c8127a4c8c2c2c0ac967,8,Size of home,87,,,wad_att_rating,6669,,,,,2022-06-17 20:13:26,26694
6234c8127a4c8c2c2c0ac967,ma_choice_v4_observers_pilot2,6234c8127a4c8c2c2c0ac967,7,Amount of traffic,49,,,wad_att_rating,4633,,,,,2022-06-17 20:13:30,26695
6234c8127a4c8c2c2c0ac967,ma_choice_v4_observers_pilot2,6234c8127a4c8c2c2c0ac967,5,Quality of kitchen,50,,,wad_att_rating,3808,,,,,2022-06-17 20:13:34,26696
6234c8127a4c8c2c2c0ac967,ma_choice_v4_observers_pilot2,6234c8127a4c8c2c2c0ac967,3,Year building was built,49,,,wad_att_rating,4873,,,,,2022-06-17 20:13:39,26697
6234c8127a4c8c2c2c0ac967,ma_choice_v4_observers_pilot2,6234c8127a4c8c2c2c0ac967,1,Noise pollution,55,,,wad_att_rating,4453,,,,,2022-06-17 20:13:43,26698
6234c8127a4c8c2c2c0ac967,ma_choice_v4_observers_pilot2,6234c8127a4c8c2c2c0ac967,4,Size of yard,87,,,wad_att_rating,2821,,,,,2022-06-17 20:13:46,26699
6234c8127a4c8c2c2c0ac967,ma_choice_v4_observers_pilot2,6234c8127a4c8c2c2c0ac967,2,Reputation of closest school,44,,,wad_att_rating,3761,,,,,2022-06-17 20:13:50,26700
6234c8127a4c8c2c2c0ac967,ma_choice_v4_observers_pilot2,6234c8127a4c8c2c2c0ac967,0,Size of yard,1,,,ew_att_rating,19043,,,,,2022-06-17 20:14:18,26701
6234c8127a4c8c2c2c0ac967,ma_choice_v4_observers_pilot2,6234c8127a4c8c2c2c0ac967,0,Size of home,1,,,ew_att_rating,19043,,,,,2022-06-17 20:14:18,26702
5f68dfc4f0b95a06e45d2fad,ma_choice_v4_observers_pilot2,5f68dfc4f0b95a06e45d2fad,0,Noise pollution,1,,,lex_att_rating,29220,,,,,2022-06-17 20:16:58,26703
5f342a35aea7432daf29219d,ma_choice_v4_observers_pilot2,5f342a35aea7432daf29219d,0,Noise pollution,1,,,ew_att_rating,9857,,,,,2022-06-17 20:17:57,26704
5f342a35aea7432daf29219d,ma_choice_v4_observers_pilot2,5f342a35aea7432daf29219d,0,Size of yard,1,,,ew_att_rating,9857,,,,,2022-06-17 20:17:57,26705
5f342a35aea7432daf29219d,ma_choice_v4_observers_pilot2,5f342a35aea7432daf29219d,0,Size of home,1,,,ew_att_rating,9857,,,,,2022-06-17 20:17:57,26706
5f342a35aea7432daf29219d,ma_choice_v4_observers_pilot2,5f342a35aea7432daf29219d,2,Reputation of closest school,0,,,wad_att_rating,5464,,,,,2022-06-17 20:18:07,26707
5f342a35aea7432daf29219d,ma_choice_v4_observers_pilot2,5f342a35aea7432daf29219d,4,Size of yard,38,,,wad_att_rating,3237,,,,,2022-06-17 20:18:11,26708
5f342a35aea7432daf29219d,ma_choice_v4_observers_pilot2,5f342a35aea7432daf29219d,0,Closeness to parks,0,,,wad_att_rating,1594,,,,,2022-06-17 20:18:12,26709
5f342a35aea7432daf29219d,ma_choice_v4_observers_pilot2,5f342a35aea7432daf29219d,6,Quality of heat/AC system,0,,,wad_att_rating,1748,,,,,2022-06-17 20:18:14,26710
5f342a35aea7432daf29219d,ma_choice_v4_observers_pilot2,5f342a35aea7432daf29219d,7,Amount of traffic,0,,,wad_att_rating,1518,,,,,2022-06-17 20:18:15,26711
5f342a35aea7432daf29219d,ma_choice_v4_observers_pilot2,5f342a35aea7432daf29219d,3,Year building was built,0,,,wad_att_rating,1703,,,,,2022-06-17 20:18:17,26712
60db56b9d2a00bf1e356167a,ma_choice_v4_observers_pilot2,60db56b9d2a00bf1e356167a,3,Year building was built,-1,1985,1950,direction,6623,,,,,2022-06-17 20:18:21,26713
5f342a35aea7432daf29219d,ma_choice_v4_observers_pilot2,5f342a35aea7432daf29219d,1,Noise pollution,81,,,wad_att_rating,4061,,,,,2022-06-17 20:18:21,26714
5f342a35aea7432daf29219d,ma_choice_v4_observers_pilot2,5f342a35aea7432daf29219d,5,Quality of kitchen,0,,,wad_att_rating,1852,,,,,2022-06-17 20:18:23,26715
5f342a35aea7432daf29219d,ma_choice_v4_observers_pilot2,5f342a35aea7432daf29219d,8,Size of home,58,,,wad_att_rating,3020,,,,,2022-06-17 20:18:26,26716
5f342a35aea7432daf29219d,ma_choice_v4_observers_pilot2,5f342a35aea7432daf29219d,0,Noise pollution,1,,,lex_att_rating,3620,,,,,2022-06-17 20:18:36,26717
60db56b9d2a00bf1e356167a,ma_choice_v4_observers_pilot2,60db56b9d2a00bf1e356167a,2,Reputation of closest school,-1,Bad,Very Good,direction,11287,,,,,2022-06-17 20:18:44,26718
60db56b9d2a00bf1e356167a,ma_choice_v4_observers_pilot2,60db56b9d2a00bf1e356167a,7,Amount of traffic,-1,Very Little,A Lot,direction,5951,,,,,2022-06-17 20:19:14,26719
5f342a35aea7432daf29219d,ma_choice_v4_observers_pilot2,5f342a35aea7432daf29219d,0,Closeness to parks,-1,10 min away,30 min away,direction,3538,,,,,2022-06-17 20:19:30,26720
5f342a35aea7432daf29219d,ma_choice_v4_observers_pilot2,5f342a35aea7432daf29219d,8,Size of home,-1,1800 square feet,600 square feet,direction,1675,,,,,2022-06-17 20:19:34,26721
60db56b9d2a00bf1e356167a,ma_choice_v4_observers_pilot2,60db56b9d2a00bf1e356167a,5,Quality of kitchen,-1,Very Bad,Moderate,direction,5879,,,,,2022-06-17 20:19:34,26722
5f342a35aea7432daf29219d,ma_choice_v4_observers_pilot2,5f342a35aea7432daf29219d,1,Noise pollution,-1,Very Low,Very High,direction,1598,,,,,2022-06-17 20:19:37,26723
5f342a35aea7432daf29219d,ma_choice_v4_observers_pilot2,5f342a35aea7432daf29219d,2,Reputation of closest school,-1,Moderate,Very Bad,direction,1718,,,,,2022-06-17 20:19:42,26724
5f342a35aea7432daf29219d,ma_choice_v4_observers_pilot2,5f342a35aea7432daf29219d,7,Amount of traffic,-1,Very Little,A Lot,direction,1797,,,,,2022-06-17 20:19:47,26725
5f342a35aea7432daf29219d,ma_choice_v4_observers_pilot2,5f342a35aea7432daf29219d,5,Quality of kitchen,-1,Moderate,Moderate,direction,903,,,,,2022-06-17 20:19:51,26726
60db56b9d2a00bf1e356167a,ma_choice_v4_observers_pilot2,60db56b9d2a00bf1e356167a,4,Size of yard,-1,300 square feet,600 square feet,direction,3479,,,,,2022-06-17 20:19:53,26727
5f342a35aea7432daf29219d,ma_choice_v4_observers_pilot2,5f342a35aea7432daf29219d,4,Size of yard,-1,600 square feet,0 square feet,direction,865,,,,,2022-06-17 20:19:54,26728
5f342a35aea7432daf29219d,ma_choice_v4_observers_pilot2,5f342a35aea7432daf29219d,3,Year building was built,-1,2020,1950,direction,720,,,,,2022-06-17 20:19:57,26729
5f342a35aea7432daf29219d,ma_choice_v4_observers_pilot2,5f342a35aea7432daf29219d,6,Quality of heat/AC system,-1,Very Good,Very Bad,direction,796,,,,,2022-06-17 20:20:00,26730
60db56b9d2a00bf1e356167a,ma_choice_v4_observers_pilot2,60db56b9d2a00bf1e356167a,6,Quality of heat/AC system,-1,Very Good,Very Bad,direction,1823,,,,,2022-06-17 20:20:01,26731
5bacc9bc42a1d1000187669b,ma_choice_v4_observers_pilot2,5bacc9bc42a1d1000187669b,0,Quality of heat/AC system,1,,,lex_att_rating,3485,,,,,2022-06-17 20:20:04,26732
5bacc9bc42a1d1000187669b,ma_choice_v4_observers_pilot2,5bacc9bc42a1d1000187669b,1,Noise pollution,0,,,wad_att_rating,4898,,,,,2022-06-17 20:20:19,26733
5bacc9bc42a1d1000187669b,ma_choice_v4_observers_pilot2,5bacc9bc42a1d1000187669b,0,Closeness to parks,0,,,wad_att_rating,3650,,,,,2022-06-17 20:20:23,26734
60db56b9d2a00bf1e356167a,ma_choice_v4_observers_pilot2,60db56b9d2a00bf1e356167a,1,Noise pollution,-1,High,Very Low,direction,3431,,,,,2022-06-17 20:20:27,26735
5bacc9bc42a1d1000187669b,ma_choice_v4_observers_pilot2,5bacc9bc42a1d1000187669b,7,Amount of traffic,37,,,wad_att_rating,3603,,,,,2022-06-17 20:20:27,26736
6234c8127a4c8c2c2c0ac967,ma_choice_v4_observers_pilot2,6234c8127a4c8c2c2c0ac967,4,Size of yard,-1,600 square feet,0 square feet,direction,2765,,,,,2022-06-17 20:20:27,26737
5bacc9bc42a1d1000187669b,ma_choice_v4_observers_pilot2,5bacc9bc42a1d1000187669b,3,Year building was built,12,,,wad_att_rating,4163,,,,,2022-06-17 20:20:31,26738
60db56b9d2a00bf1e356167a,ma_choice_v4_observers_pilot2,60db56b9d2a00bf1e356167a,0,Closeness to parks,-1,10 min away,30 min away,direction,2839,,,,,2022-06-17 20:20:34,26739
5bacc9bc42a1d1000187669b,ma_choice_v4_observers_pilot2,5bacc9bc42a1d1000187669b,8,Size of home,12,,,wad_att_rating,3914,,,,,2022-06-17 20:20:35,26740
6234c8127a4c8c2c2c0ac967,ma_choice_v4_observers_pilot2,6234c8127a4c8c2c2c0ac967,0,Closeness to parks,-1,10 min away,30 min away,direction,2664,,,,,2022-06-17 20:20:35,26741
5bacc9bc42a1d1000187669b,ma_choice_v4_observers_pilot2,5bacc9bc42a1d1000187669b,2,Reputation of closest school,0,,,wad_att_rating,3362,,,,,2022-06-17 20:20:38,26742
6234c8127a4c8c2c2c0ac967,ma_choice_v4_observers_pilot2,6234c8127a4c8c2c2c0ac967,5,Quality of kitchen,-1,Very Good,Very Bad,direction,1941,,,,,2022-06-17 20:20:40,26743
5bacc9bc42a1d1000187669b,ma_choice_v4_observers_pilot2,5bacc9bc42a1d1000187669b,4,Size of yard,0,,,wad_att_rating,2978,,,,,2022-06-17 20:20:41,26744
5bacc9bc42a1d1000187669b,ma_choice_v4_observers_pilot2,5bacc9bc42a1d1000187669b,5,Quality of kitchen,0,,,wad_att_rating,2787,,,,,2022-06-17 20:20:44,26745
6234c8127a4c8c2c2c0ac967,ma_choice_v4_observers_pilot2,6234c8127a4c8c2c2c0ac967,2,Reputation of closest school,-1,Very Good,Very Bad,direction,2998,,,,,2022-06-17 20:20:46,26746
5bacc9bc42a1d1000187669b,ma_choice_v4_observers_pilot2,5bacc9bc42a1d1000187669b,6,Quality of heat/AC system,100,,,wad_att_rating,3355,,,,,2022-06-17 20:20:47,26747
6234c8127a4c8c2c2c0ac967,ma_choice_v4_observers_pilot2,6234c8127a4c8c2c2c0ac967,8,Size of home,-1,1800 square feet,600 square feet,direction,2425,,,,,2022-06-17 20:20:50,26748
60db56b9d2a00bf1e356167a,ma_choice_v4_observers_pilot2,60db56b9d2a00bf1e356167a,8,Size of home,-1,1200 square feet,1800 square feet,direction,3447,,,,,2022-06-17 20:20:52,26749
6234c8127a4c8c2c2c0ac967,ma_choice_v4_observers_pilot2,6234c8127a4c8c2c2c0ac967,1,Noise pollution,-1,Very Low,Very High,direction,1598,,,,,2022-06-17 20:20:55,26750
6234c8127a4c8c2c2c0ac967,ma_choice_v4_observers_pilot2,6234c8127a4c8c2c2c0ac967,7,Amount of traffic,-1,Very Little,A Lot,direction,1600,,,,,2022-06-17 20:20:59,26751
6234c8127a4c8c2c2c0ac967,ma_choice_v4_observers_pilot2,6234c8127a4c8c2c2c0ac967,3,Year building was built,-1,2020,1950,direction,1530,,,,,2022-06-17 20:21:03,26752
6234c8127a4c8c2c2c0ac967,ma_choice_v4_observers_pilot2,6234c8127a4c8c2c2c0ac967,6,Quality of heat/AC system,-1,Very Good,Very Bad,direction,1647,,,,,2022-06-17 20:21:07,26753
5bacc9bc42a1d1000187669b,ma_choice_v4_observers_pilot2,5bacc9bc42a1d1000187669b,0,Quality of heat/AC system,1,,,ew_att_rating,13223,,,,,2022-06-17 20:21:21,26754
62ac7ad94cc5e1db068a442c,ma_choice_v4_observers_pilot2,62ac7ad94cc5e1db068a442c,5,Quality of kitchen,-1,Very Good,Very Bad,direction,2334,,,,,2022-06-17 20:21:50,26755
62ac7ad94cc5e1db068a442c,ma_choice_v4_observers_pilot2,62ac7ad94cc5e1db068a442c,6,Quality of heat/AC system,-1,Very Good,Very Bad,direction,1712,,,,,2022-06-17 20:21:55,26756
62ac7ad94cc5e1db068a442c,ma_choice_v4_observers_pilot2,62ac7ad94cc5e1db068a442c,2,Reputation of closest school,-1,Very Good,Very Bad,direction,1784,,,,,2022-06-17 20:21:59,26757
62ac7ad94cc5e1db068a442c,ma_choice_v4_observers_pilot2,62ac7ad94cc5e1db068a442c,8,Size of home,-1,1800 square feet,600 square feet,direction,1654,,,,,2022-06-17 20:22:03,26758
62ac7ad94cc5e1db068a442c,ma_choice_v4_observers_pilot2,62ac7ad94cc5e1db068a442c,0,Closeness to parks,-1,10 min away,30 min away,direction,1748,,,,,2022-06-17 20:22:08,26759
62ac7ad94cc5e1db068a442c,ma_choice_v4_observers_pilot2,62ac7ad94cc5e1db068a442c,7,Amount of traffic,-1,Very Little,A Lot,direction,1460,,,,,2022-06-17 20:22:14,26760
62ac7ad94cc5e1db068a442c,ma_choice_v4_observers_pilot2,62ac7ad94cc5e1db068a442c,1,Noise pollution,-1,Very Low,Very High,direction,1520,,,,,2022-06-17 20:22:18,26761
62ac7ad94cc5e1db068a442c,ma_choice_v4_observers_pilot2,62ac7ad94cc5e1db068a442c,4,Size of yard,-1,600 square feet,0 square feet,direction,1843,,,,,2022-06-17 20:22:23,26762
62ac7ad94cc5e1db068a442c,ma_choice_v4_observers_pilot2,62ac7ad94cc5e1db068a442c,3,Year building was built,-1,2020,1950,direction,1387,,,,,2022-06-17 20:22:28,26763
5858c6178604ae000165e66a,ma_choice_v4_observers_pilot2,5858c6178604ae000165e66a,7,Amount of traffic,25,,,wad_att_rating,8706,,,,,2022-06-17 20:28:19,26764
5858c6178604ae000165e66a,ma_choice_v4_observers_pilot2,5858c6178604ae000165e66a,6,Quality of heat/AC system,75,,,wad_att_rating,11426,,,,,2022-06-17 20:28:31,26765
5858c6178604ae000165e66a,ma_choice_v4_observers_pilot2,5858c6178604ae000165e66a,8,Size of home,62,,,wad_att_rating,6768,,,,,2022-06-17 20:28:37,26766
5858c6178604ae000165e66a,ma_choice_v4_observers_pilot2,5858c6178604ae000165e66a,3,Year building was built,12,,,wad_att_rating,6370,,,,,2022-06-17 20:28:44,26767
5858c6178604ae000165e66a,ma_choice_v4_observers_pilot2,5858c6178604ae000165e66a,4,Size of yard,49,,,wad_att_rating,9818,,,,,2022-06-17 20:28:54,26768
5858c6178604ae000165e66a,ma_choice_v4_observers_pilot2,5858c6178604ae000165e66a,5,Quality of kitchen,87,,,wad_att_rating,8546,,,,,2022-06-17 20:29:02,26769
5858c6178604ae000165e66a,ma_choice_v4_observers_pilot2,5858c6178604ae000165e66a,0,Closeness to parks,37,,,wad_att_rating,5761,,,,,2022-06-17 20:29:08,26770
5858c6178604ae000165e66a,ma_choice_v4_observers_pilot2,5858c6178604ae000165e66a,1,Noise pollution,50,,,wad_att_rating,7756,,,,,2022-06-17 20:29:16,26771
622e06e4046635b0eb64f103,ma_choice_v4_observers_pilot2,622e06e4046635b0eb64f103,0,Closeness to parks,36,,,wad_att_rating,10978,,,,,2022-06-17 20:29:19,26772
5bacc9bc42a1d1000187669b,ma_choice_v4_observers_pilot2,5bacc9bc42a1d1000187669b,5,Quality of kitchen,-1,Very Good,Very Bad,direction,3828,,,,,2022-06-17 20:29:23,26773
5858c6178604ae000165e66a,ma_choice_v4_observers_pilot2,5858c6178604ae000165e66a,2,Reputation of closest school,62,,,wad_att_rating,9502,,,,,2022-06-17 20:29:25,26774
622e06e4046635b0eb64f103,ma_choice_v4_observers_pilot2,622e06e4046635b0eb64f103,7,Amount of traffic,50,,,wad_att_rating,7706,,,,,2022-06-17 20:29:27,26775
5bacc9bc42a1d1000187669b,ma_choice_v4_observers_pilot2,5bacc9bc42a1d1000187669b,2,Reputation of closest school,-1,Moderate,Moderate,direction,2460,,,,,2022-06-17 20:29:31,26776
622e06e4046635b0eb64f103,ma_choice_v4_observers_pilot2,622e06e4046635b0eb64f103,2,Reputation of closest school,18,,,wad_att_rating,7128,,,,,2022-06-17 20:29:34,26777
5bacc9bc42a1d1000187669b,ma_choice_v4_observers_pilot2,5bacc9bc42a1d1000187669b,8,Size of home,-1,1200 square feet,600 square feet,direction,2508,,,,,2022-06-17 20:29:38,26778
622e06e4046635b0eb64f103,ma_choice_v4_observers_pilot2,622e06e4046635b0eb64f103,1,Noise pollution,50,,,wad_att_rating,6727,,,,,2022-06-17 20:29:41,26779
60fced51e14f51249023972a,ma_choice_v4_observers_pilot2,60fced51e14f51249023972a,2,Reputation of closest school,87,,,wad_att_rating,5838,,,,,2022-06-17 20:29:44,26780
622e06e4046635b0eb64f103,ma_choice_v4_observers_pilot2,622e06e4046635b0eb64f103,6,Quality of heat/AC system,24,,,wad_att_rating,5496,,,,,2022-06-17 20:29:46,26781
5bacc9bc42a1d1000187669b,ma_choice_v4_observers_pilot2,5bacc9bc42a1d1000187669b,0,Closeness to parks,-1,10 min away,30 min away,direction,1397,,,,,2022-06-17 20:29:47,26782
60fced51e14f51249023972a,ma_choice_v4_observers_pilot2,60fced51e14f51249023972a,4,Size of yard,0,,,wad_att_rating,3281,,,,,2022-06-17 20:29:47,26783
60fced51e14f51249023972a,ma_choice_v4_observers_pilot2,60fced51e14f51249023972a,3,Year building was built,0,,,wad_att_rating,2711,,,,,2022-06-17 20:29:50,26784
622e06e4046635b0eb64f103,ma_choice_v4_observers_pilot2,622e06e4046635b0eb64f103,5,Quality of kitchen,26,,,wad_att_rating,4625,,,,,2022-06-17 20:29:51,26785
5bacc9bc42a1d1000187669b,ma_choice_v4_observers_pilot2,5bacc9bc42a1d1000187669b,3,Year building was built,-1,2020,1950,direction,1949,,,,,2022-06-17 20:29:53,26786
60fced51e14f51249023972a,ma_choice_v4_observers_pilot2,60fced51e14f51249023972a,6,Quality of heat/AC system,62,,,wad_att_rating,4262,,,,,2022-06-17 20:29:54,26787
622e06e4046635b0eb64f103,ma_choice_v4_observers_pilot2,622e06e4046635b0eb64f103,3,Year building was built,62,,,wad_att_rating,5776,,,,,2022-06-17 20:29:56,26788
60fced51e14f51249023972a,ma_choice_v4_observers_pilot2,60fced51e14f51249023972a,0,Closeness to parks,0,,,wad_att_rating,4490,,,,,2022-06-17 20:29:59,26789
5bacc9bc42a1d1000187669b,ma_choice_v4_observers_pilot2,5bacc9bc42a1d1000187669b,7,Amount of traffic,-1,Very Little,A Lot,direction,1772,,,,,2022-06-17 20:30:02,26790
60fced51e14f51249023972a,ma_choice_v4_observers_pilot2,60fced51e14f51249023972a,7,Amount of traffic,0,,,wad_att_rating,3487,,,,,2022-06-17 20:30:04,26791
622e06e4046635b0eb64f103,ma_choice_v4_observers_pilot2,622e06e4046635b0eb64f103,4,Size of yard,37,,,wad_att_rating,7584,,,,,2022-06-17 20:30:05,26792
60fced51e14f51249023972a,ma_choice_v4_observers_pilot2,60fced51e14f51249023972a,5,Quality of kitchen,12,,,wad_att_rating,3458,,,,,2022-06-17 20:30:06,26793
60fced51e14f51249023972a,ma_choice_v4_observers_pilot2,60fced51e14f51249023972a,1,Noise pollution,37,,,wad_att_rating,3003,,,,,2022-06-17 20:30:09,26794
622e06e4046635b0eb64f103,ma_choice_v4_observers_pilot2,622e06e4046635b0eb64f103,8,Size of home,93,,,wad_att_rating,6600,,,,,2022-06-17 20:30:11,26795
60fced51e14f51249023972a,ma_choice_v4_observers_pilot2,60fced51e14f51249023972a,8,Size of home,50,,,wad_att_rating,3152,,,,,2022-06-17 20:30:12,26796
5bacc9bc42a1d1000187669b,ma_choice_v4_observers_pilot2,5bacc9bc42a1d1000187669b,1,Noise pollution,-1,Low,Very High,direction,1412,,,,,2022-06-17 20:30:15,26797
5bacc9bc42a1d1000187669b,ma_choice_v4_observers_pilot2,5bacc9bc42a1d1000187669b,6,Quality of heat/AC system,-1,Very Good,Very Bad,direction,1643,,,,,2022-06-17 20:30:21,26798
60fced51e14f51249023972a,ma_choice_v4_observers_pilot2,60fced51e14f51249023972a,0,Reputation of closest school,1,,,lex_att_rating,2343,,,,,2022-06-17 20:30:24,26799
5858c6178604ae000165e66a,ma_choice_v4_observers_pilot2,5858c6178604ae000165e66a,0,Amount of traffic,1,,,ew_att_rating,21819,,,,,2022-06-17 20:30:25,26800
5858c6178604ae000165e66a,ma_choice_v4_observers_pilot2,5858c6178604ae000165e66a,0,Reputation of closest school,1,,,ew_att_rating,21819,,,,,2022-06-17 20:30:25,26801
5858c6178604ae000165e66a,ma_choice_v4_observers_pilot2,5858c6178604ae000165e66a,0,Noise pollution,1,,,ew_att_rating,21819,,,,,2022-06-17 20:30:25,26802
5858c6178604ae000165e66a,ma_choice_v4_observers_pilot2,5858c6178604ae000165e66a,0,Quality of kitchen,1,,,ew_att_rating,21819,,,,,2022-06-17 20:30:25,26803
5858c6178604ae000165e66a,ma_choice_v4_observers_pilot2,5858c6178604ae000165e66a,0,Quality of heat/AC system,1,,,ew_att_rating,21819,,,,,2022-06-17 20:30:25,26804
5bacc9bc42a1d1000187669b,ma_choice_v4_observers_pilot2,5bacc9bc42a1d1000187669b,4,Size of yard,-1,600 square feet,0 square feet,direction,1180,,,,,2022-06-17 20:30:27,26805
60fced51e14f51249023972a,ma_choice_v4_observers_pilot2,60fced51e14f51249023972a,0,Reputation of closest school,1,,,ew_att_rating,10210,,,,,2022-06-17 20:30:40,26806
60fced51e14f51249023972a,ma_choice_v4_observers_pilot2,60fced51e14f51249023972a,0,Quality of heat/AC system,1,,,ew_att_rating,10210,,,,,2022-06-17 20:30:40,26807
60fced51e14f51249023972a,ma_choice_v4_observers_pilot2,60fced51e14f51249023972a,0,Size of home,1,,,ew_att_rating,10210,,,,,2022-06-17 20:30:40,26808
60fced51e14f51249023972a,ma_choice_v4_observers_pilot2,60fced51e14f51249023972a,0,Noise pollution,1,,,ew_att_rating,10210,,,,,2022-06-17 20:30:40,26809
5858c6178604ae000165e66a,ma_choice_v4_observers_pilot2,5858c6178604ae000165e66a,0,Quality of kitchen,1,,,lex_att_rating,9879,,,,,2022-06-17 20:30:49,26810
622e06e4046635b0eb64f103,ma_choice_v4_observers_pilot2,622e06e4046635b0eb64f103,0,Noise pollution,1,,,ew_att_rating,32663,,,,,2022-06-17 20:30:57,26811
622e06e4046635b0eb64f103,ma_choice_v4_observers_pilot2,622e06e4046635b0eb64f103,0,Amount of traffic,1,,,ew_att_rating,32663,,,,,2022-06-17 20:30:57,26812
622e06e4046635b0eb64f103,ma_choice_v4_observers_pilot2,622e06e4046635b0eb64f103,0,Size of home,1,,,ew_att_rating,32663,,,,,2022-06-17 20:30:57,26813
622e06e4046635b0eb64f103,ma_choice_v4_observers_pilot2,622e06e4046635b0eb64f103,0,Size of home,1,,,lex_att_rating,4858,,,,,2022-06-17 20:31:08,26814
60fced51e14f51249023972a,ma_choice_v4_observers_pilot2,60fced51e14f51249023972a,3,Year building was built,-1,2020,1950,direction,2508,,,,,2022-06-17 20:31:53,26815
60fced51e14f51249023972a,ma_choice_v4_observers_pilot2,60fced51e14f51249023972a,8,Size of home,-1,1800 square feet,600 square feet,direction,2026,,,,,2022-06-17 20:32:00,26816
60fced51e14f51249023972a,ma_choice_v4_observers_pilot2,60fced51e14f51249023972a,1,Noise pollution,-1,Very Low,Very High,direction,1453,,,,,2022-06-17 20:32:05,26817
60fced51e14f51249023972a,ma_choice_v4_observers_pilot2,60fced51e14f51249023972a,0,Closeness to parks,-1,10 min away,30 min away,direction,1840,,,,,2022-06-17 20:32:10,26818
60fced51e14f51249023972a,ma_choice_v4_observers_pilot2,60fced51e14f51249023972a,4,Size of yard,-1,600 square feet,0 square feet,direction,1719,,,,,2022-06-17 20:32:15,26819
60fced51e14f51249023972a,ma_choice_v4_observers_pilot2,60fced51e14f51249023972a,5,Quality of kitchen,-1,Very Good,Very Bad,direction,1681,,,,,2022-06-17 20:32:20,26820
60fced51e14f51249023972a,ma_choice_v4_observers_pilot2,60fced51e14f51249023972a,2,Reputation of closest school,-1,Very Good,Very Bad,direction,1655,,,,,2022-06-17 20:32:24,26821
60fced51e14f51249023972a,ma_choice_v4_observers_pilot2,60fced51e14f51249023972a,6,Quality of heat/AC system,-1,Very Good,Very Bad,direction,1739,,,,,2022-06-17 20:32:28,26822
60fced51e14f51249023972a,ma_choice_v4_observers_pilot2,60fced51e14f51249023972a,7,Amount of traffic,-1,Very Little,A Lot,direction,2020,,,,,2022-06-17 20:32:33,26823
622e06e4046635b0eb64f103,ma_choice_v4_observers_pilot2,622e06e4046635b0eb64f103,8,Size of home,-1,1800 square feet,600 square feet,direction,4304,,,,,2022-06-17 20:32:53,26824
622e06e4046635b0eb64f103,ma_choice_v4_observers_pilot2,622e06e4046635b0eb64f103,2,Reputation of closest school,-1,Moderate,Moderate,direction,16045,,,,,2022-06-17 20:33:12,26825
5858c6178604ae000165e66a,ma_choice_v4_observers_pilot2,5858c6178604ae000165e66a,5,Quality of kitchen,-1,Very Good,Very Bad,direction,10837,,,,,2022-06-17 20:33:26,26826
622e06e4046635b0eb64f103,ma_choice_v4_observers_pilot2,622e06e4046635b0eb64f103,7,Amount of traffic,-1,A Lot,Very Little,direction,4400,,,,,2022-06-17 20:33:26,26827
622e06e4046635b0eb64f103,ma_choice_v4_observers_pilot2,622e06e4046635b0eb64f103,3,Year building was built,-1,1985,1950,direction,3518,,,,,2022-06-17 20:33:38,26828
622e06e4046635b0eb64f103,ma_choice_v4_observers_pilot2,622e06e4046635b0eb64f103,6,Quality of heat/AC system,-1,Moderate,Very Bad,direction,5023,,,,,2022-06-17 20:33:47,26829
5858c6178604ae000165e66a,ma_choice_v4_observers_pilot2,5858c6178604ae000165e66a,3,Year building was built,-1,2020,1950,direction,2979,,,,,2022-06-17 20:33:51,26830
622e06e4046635b0eb64f103,ma_choice_v4_observers_pilot2,622e06e4046635b0eb64f103,1,Noise pollution,-1,Low,Very High,direction,3279,,,,,2022-06-17 20:33:59,26831
5858c6178604ae000165e66a,ma_choice_v4_observers_pilot2,5858c6178604ae000165e66a,2,Reputation of closest school,-1,Good,Very Bad,direction,3020,,,,,2022-06-17 20:34:04,26832
622e06e4046635b0eb64f103,ma_choice_v4_observers_pilot2,622e06e4046635b0eb64f103,0,Closeness to parks,-1,15 min away,30 min away,direction,3305,,,,,2022-06-17 20:34:10,26833
622e06e4046635b0eb64f103,ma_choice_v4_observers_pilot2,622e06e4046635b0eb64f103,5,Quality of kitchen,-1,Moderate,Bad,direction,3904,,,,,2022-06-17 20:34:17,26834
5858c6178604ae000165e66a,ma_choice_v4_observers_pilot2,5858c6178604ae000165e66a,7,Amount of traffic,-1,A Moderate Amount,A Lot,direction,5971,,,,,2022-06-17 20:34:23,26835
622e06e4046635b0eb64f103,ma_choice_v4_observers_pilot2,622e06e4046635b0eb64f103,4,Size of yard,-1,600 square feet,0 square feet,direction,3425,,,,,2022-06-17 20:34:28,26836
5858c6178604ae000165e66a,ma_choice_v4_observers_pilot2,5858c6178604ae000165e66a,0,Closeness to parks,-1,10 min away,30 min away,direction,4316,,,,,2022-06-17 20:34:33,26837
5858c6178604ae000165e66a,ma_choice_v4_observers_pilot2,5858c6178604ae000165e66a,6,Quality of heat/AC system,-1,Very Good,Very Bad,direction,1960,,,,,2022-06-17 20:34:38,26838
5858c6178604ae000165e66a,ma_choice_v4_observers_pilot2,5858c6178604ae000165e66a,8,Size of home,-1,1200 square feet,600 square feet,direction,2033,,,,,2022-06-17 20:34:47,26839
5f1b84872171f838a8a3cfa9,ma_choice_v4_observers_pilot2,5f1b84872171f838a8a3cfa9,0,Noise pollution,1,,,ew_att_rating,85725,,,,,2022-06-17 20:34:54,26840
5f1b84872171f838a8a3cfa9,ma_choice_v4_observers_pilot2,5f1b84872171f838a8a3cfa9,0,Year building was built,1,,,ew_att_rating,85725,,,,,2022-06-17 20:34:54,26841
5f1b84872171f838a8a3cfa9,ma_choice_v4_observers_pilot2,5f1b84872171f838a8a3cfa9,0,Quality of kitchen,1,,,ew_att_rating,85725,,,,,2022-06-17 20:34:54,26842
5f1b84872171f838a8a3cfa9,ma_choice_v4_observers_pilot2,5f1b84872171f838a8a3cfa9,0,Size of home,1,,,ew_att_rating,85725,,,,,2022-06-17 20:34:54,26843
5f1b84872171f838a8a3cfa9,ma_choice_v4_observers_pilot2,5f1b84872171f838a8a3cfa9,0,Reputation of closest school,1,,,ew_att_rating,85725,,,,,2022-06-17 20:34:54,26844
5858c6178604ae000165e66a,ma_choice_v4_observers_pilot2,5858c6178604ae000165e66a,4,Size of yard,-1,300 square feet,0 square feet,direction,1849,,,,,2022-06-17 20:35:01,26845
5858c6178604ae000165e66a,ma_choice_v4_observers_pilot2,5858c6178604ae000165e66a,1,Noise pollution,-1,Very Low,Very High,direction,2638,,,,,2022-06-17 20:35:13,26846
5f1b84872171f838a8a3cfa9,ma_choice_v4_observers_pilot2,5f1b84872171f838a8a3cfa9,0,Size of home,1,,,lex_att_rating,12369,,,,,2022-06-17 20:35:14,26847
5f1b84872171f838a8a3cfa9,ma_choice_v4_observers_pilot2,5f1b84872171f838a8a3cfa9,0,Closeness to parks,13,,,wad_att_rating,9769,,,,,2022-06-17 20:35:33,26848
5f1b84872171f838a8a3cfa9,ma_choice_v4_observers_pilot2,5f1b84872171f838a8a3cfa9,8,Size of home,78,,,wad_att_rating,8316,,,,,2022-06-17 20:35:41,26849
5d9ed6d5a40b0200173dc7f9,ma_choice_v4_observers_pilot2,5d9ed6d5a40b0200173dc7f9,3,Year building was built,100,,,wad_att_rating,7154,,,,,2022-06-17 20:35:47,26850
5f1b84872171f838a8a3cfa9,ma_choice_v4_observers_pilot2,5f1b84872171f838a8a3cfa9,2,Reputation of closest school,54,,,wad_att_rating,13789,,,,,2022-06-17 20:35:55,26851
5d9ed6d5a40b0200173dc7f9,ma_choice_v4_observers_pilot2,5d9ed6d5a40b0200173dc7f9,5,Quality of kitchen,75,,,wad_att_rating,10269,,,,,2022-06-17 20:35:57,26852
5f1b84872171f838a8a3cfa9,ma_choice_v4_observers_pilot2,5f1b84872171f838a8a3cfa9,4,Size of yard,17,,,wad_att_rating,4976,,,,,2022-06-17 20:36:00,26853
5d9ed6d5a40b0200173dc7f9,ma_choice_v4_observers_pilot2,5d9ed6d5a40b0200173dc7f9,0,Closeness to parks,23,,,wad_att_rating,4091,,,,,2022-06-17 20:36:01,26854
5d9ed6d5a40b0200173dc7f9,ma_choice_v4_observers_pilot2,5d9ed6d5a40b0200173dc7f9,4,Size of yard,3,,,wad_att_rating,5138,,,,,2022-06-17 20:36:06,26855
5f1b84872171f838a8a3cfa9,ma_choice_v4_observers_pilot2,5f1b84872171f838a8a3cfa9,5,Quality of kitchen,52,,,wad_att_rating,7721,,,,,2022-06-17 20:36:07,26856
5d9ed6d5a40b0200173dc7f9,ma_choice_v4_observers_pilot2,5d9ed6d5a40b0200173dc7f9,8,Size of home,1,,,wad_att_rating,3130,,,,,2022-06-17 20:36:09,26857
5d9ed6d5a40b0200173dc7f9,ma_choice_v4_observers_pilot2,5d9ed6d5a40b0200173dc7f9,1,Noise pollution,2,,,wad_att_rating,2760,,,,,2022-06-17 20:36:12,26858
5d9ed6d5a40b0200173dc7f9,ma_choice_v4_observers_pilot2,5d9ed6d5a40b0200173dc7f9,6,Quality of heat/AC system,3,,,wad_att_rating,2614,,,,,2022-06-17 20:36:15,26859
5f1b84872171f838a8a3cfa9,ma_choice_v4_observers_pilot2,5f1b84872171f838a8a3cfa9,1,Noise pollution,75,,,wad_att_rating,7597,,,,,2022-06-17 20:36:15,26860
5d9ed6d5a40b0200173dc7f9,ma_choice_v4_observers_pilot2,5d9ed6d5a40b0200173dc7f9,2,Reputation of closest school,100,,,wad_att_rating,4074,,,,,2022-06-17 20:36:19,26861
5d9ed6d5a40b0200173dc7f9,ma_choice_v4_observers_pilot2,5d9ed6d5a40b0200173dc7f9,7,Amount of traffic,25,,,wad_att_rating,4054,,,,,2022-06-17 20:36:23,26862
5f1b84872171f838a8a3cfa9,ma_choice_v4_observers_pilot2,5f1b84872171f838a8a3cfa9,7,Amount of traffic,17,,,wad_att_rating,8658,,,,,2022-06-17 20:36:24,26863
5f1b84872171f838a8a3cfa9,ma_choice_v4_observers_pilot2,5f1b84872171f838a8a3cfa9,3,Year building was built,62,,,wad_att_rating,5025,,,,,2022-06-17 20:36:29,26864
5d9ed6d5a40b0200173dc7f9,ma_choice_v4_observers_pilot2,5d9ed6d5a40b0200173dc7f9,0,Reputation of closest school,1,,,ew_att_rating,3340,,,,,2022-06-17 20:36:35,26865
5f1b84872171f838a8a3cfa9,ma_choice_v4_observers_pilot2,5f1b84872171f838a8a3cfa9,6,Quality of heat/AC system,15,,,wad_att_rating,7126,,,,,2022-06-17 20:36:36,26866
5d9ed6d5a40b0200173dc7f9,ma_choice_v4_observers_pilot2,5d9ed6d5a40b0200173dc7f9,0,Reputation of closest school,1,,,lex_att_rating,6108,,,,,2022-06-17 20:36:52,26867
5d9ed6d5a40b0200173dc7f9,ma_choice_v4_observers_pilot2,5d9ed6d5a40b0200173dc7f9,2,Reputation of closest school,-1,Very Good,Very Bad,direction,8802,,,,,2022-06-17 20:38:06,26868
5d9ed6d5a40b0200173dc7f9,ma_choice_v4_observers_pilot2,5d9ed6d5a40b0200173dc7f9,6,Quality of heat/AC system,-1,Moderate,Very Bad,direction,4046,,,,,2022-06-17 20:38:17,26869
60ff8095fe0067960a67ab9b,ma_choice_v4_observers_pilot2,60ff8095fe0067960a67ab9b,7,Amount of traffic,25,,,wad_att_rating,4438,,,,,2022-06-17 20:38:26,26870
5d9ed6d5a40b0200173dc7f9,ma_choice_v4_observers_pilot2,5d9ed6d5a40b0200173dc7f9,3,Year building was built,-1,2020,1950,direction,2253,,,,,2022-06-17 20:38:28,26871
60ff8095fe0067960a67ab9b,ma_choice_v4_observers_pilot2,60ff8095fe0067960a67ab9b,2,Reputation of closest school,83,,,wad_att_rating,4205,,,,,2022-06-17 20:38:30,26872
60ff8095fe0067960a67ab9b,ma_choice_v4_observers_pilot2,60ff8095fe0067960a67ab9b,6,Quality of heat/AC system,30,,,wad_att_rating,3459,,,,,2022-06-17 20:38:34,26873
60ff8095fe0067960a67ab9b,ma_choice_v4_observers_pilot2,60ff8095fe0067960a67ab9b,3,Year building was built,27,,,wad_att_rating,3137,,,,,2022-06-17 20:38:37,26874
60ff8095fe0067960a67ab9b,ma_choice_v4_observers_pilot2,60ff8095fe0067960a67ab9b,4,Size of yard,54,,,wad_att_rating,2550,,,,,2022-06-17 20:38:39,26875
5d9ed6d5a40b0200173dc7f9,ma_choice_v4_observers_pilot2,5d9ed6d5a40b0200173dc7f9,8,Size of home,-1,1200 square feet,600 square feet,direction,1756,,,,,2022-06-17 20:38:41,26876
60ff8095fe0067960a67ab9b,ma_choice_v4_observers_pilot2,60ff8095fe0067960a67ab9b,0,Closeness to parks,33,,,wad_att_rating,3501,,,,,2022-06-17 20:38:43,26877
60ff8095fe0067960a67ab9b,ma_choice_v4_observers_pilot2,60ff8095fe0067960a67ab9b,5,Quality of kitchen,88,,,wad_att_rating,3633,,,,,2022-06-17 20:38:47,26878
5d9ed6d5a40b0200173dc7f9,ma_choice_v4_observers_pilot2,5d9ed6d5a40b0200173dc7f9,4,Size of yard,-1,300 square feet,0 square feet,direction,1444,,,,,2022-06-17 20:38:47,26879
60ff8095fe0067960a67ab9b,ma_choice_v4_observers_pilot2,60ff8095fe0067960a67ab9b,8,Size of home,68,,,wad_att_rating,2752,,,,,2022-06-17 20:38:49,26880
60ff8095fe0067960a67ab9b,ma_choice_v4_observers_pilot2,60ff8095fe0067960a67ab9b,1,Noise pollution,84,,,wad_att_rating,3487,,,,,2022-06-17 20:38:53,26881
5d9ed6d5a40b0200173dc7f9,ma_choice_v4_observers_pilot2,5d9ed6d5a40b0200173dc7f9,5,Quality of kitchen,-1,Very Good,Bad,direction,1526,,,,,2022-06-17 20:38:55,26882
5d9ed6d5a40b0200173dc7f9,ma_choice_v4_observers_pilot2,5d9ed6d5a40b0200173dc7f9,1,Noise pollution,-1,Low,Very Low,direction,2386,,,,,2022-06-17 20:39:01,26883
5d9ed6d5a40b0200173dc7f9,ma_choice_v4_observers_pilot2,5d9ed6d5a40b0200173dc7f9,7,Amount of traffic,-1,A Little,Very Little,direction,1644,,,,,2022-06-17 20:39:07,26884
60ff8095fe0067960a67ab9b,ma_choice_v4_observers_pilot2,60ff8095fe0067960a67ab9b,0,Noise pollution,1,,,ew_att_rating,12486,,,,,2022-06-17 20:39:13,26885
60ff8095fe0067960a67ab9b,ma_choice_v4_observers_pilot2,60ff8095fe0067960a67ab9b,0,Size of home,1,,,ew_att_rating,12486,,,,,2022-06-17 20:39:13,26886
60ff8095fe0067960a67ab9b,ma_choice_v4_observers_pilot2,60ff8095fe0067960a67ab9b,0,Reputation of closest school,1,,,ew_att_rating,12486,,,,,2022-06-17 20:39:13,26887
60ff8095fe0067960a67ab9b,ma_choice_v4_observers_pilot2,60ff8095fe0067960a67ab9b,0,Quality of kitchen,1,,,ew_att_rating,12486,,,,,2022-06-17 20:39:13,26888
5d9ed6d5a40b0200173dc7f9,ma_choice_v4_observers_pilot2,5d9ed6d5a40b0200173dc7f9,0,Closeness to parks,-1,15 min away,30 min away,direction,3436,,,,,2022-06-17 20:39:21,26889
60ff8095fe0067960a67ab9b,ma_choice_v4_observers_pilot2,60ff8095fe0067960a67ab9b,0,Reputation of closest school,1,,,lex_att_rating,5162,,,,,2022-06-17 20:39:22,26890
5f1b84872171f838a8a3cfa9,ma_choice_v4_observers_pilot2,5f1b84872171f838a8a3cfa9,6,Quality of heat/AC system,-1,Very Good,Very Bad,direction,8829,,,,,2022-06-17 20:39:37,26891
5f1b84872171f838a8a3cfa9,ma_choice_v4_observers_pilot2,5f1b84872171f838a8a3cfa9,4,Size of yard,-1,600 square feet,0 square feet,direction,3303,,,,,2022-06-17 20:39:46,26892
5f1b84872171f838a8a3cfa9,ma_choice_v4_observers_pilot2,5f1b84872171f838a8a3cfa9,8,Size of home,-1,1800 square feet,600 square feet,direction,2102,,,,,2022-06-17 20:39:59,26893
5f1b84872171f838a8a3cfa9,ma_choice_v4_observers_pilot2,5f1b84872171f838a8a3cfa9,1,Noise pollution,-1,Very Low,Very High,direction,2774,,,,,2022-06-17 20:40:07,26894
5f1b84872171f838a8a3cfa9,ma_choice_v4_observers_pilot2,5f1b84872171f838a8a3cfa9,7,Amount of traffic,-1,A Little,A Lot,direction,2231,,,,,2022-06-17 20:40:22,26895
5f1b84872171f838a8a3cfa9,ma_choice_v4_observers_pilot2,5f1b84872171f838a8a3cfa9,2,Reputation of closest school,-1,Very Good,Very Bad,direction,3149,,,,,2022-06-17 20:40:30,26896
5f1b84872171f838a8a3cfa9,ma_choice_v4_observers_pilot2,5f1b84872171f838a8a3cfa9,5,Quality of kitchen,-1,Very Good,Very Bad,direction,2310,,,,,2022-06-17 20:40:35,26897
5f1b84872171f838a8a3cfa9,ma_choice_v4_observers_pilot2,5f1b84872171f838a8a3cfa9,3,Year building was built,-1,2020,1950,direction,2495,,,,,2022-06-17 20:40:43,26898
5f1b84872171f838a8a3cfa9,ma_choice_v4_observers_pilot2,5f1b84872171f838a8a3cfa9,0,Closeness to parks,-1,10 min away,30 min away,direction,2094,,,,,2022-06-17 20:40:49,26899
60f3c1b003bbf8263f002824,ma_choice_v4_observers_pilot2,60f3c1b003bbf8263f002824,3,Year building was built,75,,,wad_att_rating,7669,,,,,2022-06-17 20:42:49,26900
60f3c1b003bbf8263f002824,ma_choice_v4_observers_pilot2,60f3c1b003bbf8263f002824,7,Amount of traffic,21,,,wad_att_rating,6297,,,,,2022-06-17 20:42:55,26901
60f3c1b003bbf8263f002824,ma_choice_v4_observers_pilot2,60f3c1b003bbf8263f002824,5,Quality of kitchen,74,,,wad_att_rating,9197,,,,,2022-06-17 20:43:04,26902
60f3c1b003bbf8263f002824,ma_choice_v4_observers_pilot2,60f3c1b003bbf8263f002824,1,Noise pollution,22,,,wad_att_rating,7306,,,,,2022-06-17 20:43:12,26903
60f3c1b003bbf8263f002824,ma_choice_v4_observers_pilot2,60f3c1b003bbf8263f002824,8,Size of home,49,,,wad_att_rating,7815,,,,,2022-06-17 20:43:19,26904
60f3c1b003bbf8263f002824,ma_choice_v4_observers_pilot2,60f3c1b003bbf8263f002824,4,Size of yard,83,,,wad_att_rating,8433,,,,,2022-06-17 20:43:28,26905
60f3c1b003bbf8263f002824,ma_choice_v4_observers_pilot2,60f3c1b003bbf8263f002824,6,Quality of heat/AC system,35,,,wad_att_rating,6846,,,,,2022-06-17 20:43:35,26906
60f3c1b003bbf8263f002824,ma_choice_v4_observers_pilot2,60f3c1b003bbf8263f002824,2,Reputation of closest school,26,,,wad_att_rating,6924,,,,,2022-06-17 20:43:42,26907
60ff8095fe0067960a67ab9b,ma_choice_v4_observers_pilot2,60ff8095fe0067960a67ab9b,3,Year building was built,-1,1985,1950,direction,2528,,,,,2022-06-17 20:43:49,26908
60ff8095fe0067960a67ab9b,ma_choice_v4_observers_pilot2,60ff8095fe0067960a67ab9b,6,Quality of heat/AC system,-1,Good,Very Bad,direction,2270,,,,,2022-06-17 20:43:56,26909
60f3c1b003bbf8263f002824,ma_choice_v4_observers_pilot2,60f3c1b003bbf8263f002824,0,Closeness to parks,38,,,wad_att_rating,14937,,,,,2022-06-17 20:43:57,26910
60ff8095fe0067960a67ab9b,ma_choice_v4_observers_pilot2,60ff8095fe0067960a67ab9b,8,Size of home,-1,1200 square feet,600 square feet,direction,1739,,,,,2022-06-17 20:44:01,26911
60ff8095fe0067960a67ab9b,ma_choice_v4_observers_pilot2,60ff8095fe0067960a67ab9b,5,Quality of kitchen,-1,Very Good,Very Bad,direction,3381,,,,,2022-06-17 20:44:07,26912
60ff8095fe0067960a67ab9b,ma_choice_v4_observers_pilot2,60ff8095fe0067960a67ab9b,1,Noise pollution,-1,Very Low,Very High,direction,2643,,,,,2022-06-17 20:44:16,26913
60ff8095fe0067960a67ab9b,ma_choice_v4_observers_pilot2,60ff8095fe0067960a67ab9b,0,Closeness to parks,-1,15 min away,25 min away,direction,2075,,,,,2022-06-17 20:44:24,26914
60ff8095fe0067960a67ab9b,ma_choice_v4_observers_pilot2,60ff8095fe0067960a67ab9b,4,Size of yard,-1,300 square feet,0 square feet,direction,2155,,,,,2022-06-17 20:44:32,26915
60ff8095fe0067960a67ab9b,ma_choice_v4_observers_pilot2,60ff8095fe0067960a67ab9b,2,Reputation of closest school,-1,Very Good,Very Bad,direction,1840,,,,,2022-06-17 20:44:37,26916
60f3c1b003bbf8263f002824,ma_choice_v4_observers_pilot2,60f3c1b003bbf8263f002824,0,Year building was built,1,,,ew_att_rating,20198,,,,,2022-06-17 20:44:39,26917
60f3c1b003bbf8263f002824,ma_choice_v4_observers_pilot2,60f3c1b003bbf8263f002824,0,Quality of kitchen,1,,,ew_att_rating,20198,,,,,2022-06-17 20:44:39,26918
60f3c1b003bbf8263f002824,ma_choice_v4_observers_pilot2,60f3c1b003bbf8263f002824,0,Size of home,1,,,ew_att_rating,20198,,,,,2022-06-17 20:44:39,26919
60f3c1b003bbf8263f002824,ma_choice_v4_observers_pilot2,60f3c1b003bbf8263f002824,0,Size of yard,1,,,ew_att_rating,20198,,,,,2022-06-17 20:44:39,26920
60ff8095fe0067960a67ab9b,ma_choice_v4_observers_pilot2,60ff8095fe0067960a67ab9b,7,Amount of traffic,-1,A Little,A Lot,direction,1932,,,,,2022-06-17 20:44:45,26921
60f3c1b003bbf8263f002824,ma_choice_v4_observers_pilot2,60f3c1b003bbf8263f002824,0,Size of yard,1,,,lex_att_rating,3379,,,,,2022-06-17 20:45:03,26922
5cd8d86210887400182db201,ma_choice_v4_observers_pilot2,5cd8d86210887400182db201,0,Noise pollution,1,,,lex_att_rating,8744,,,,,2022-06-17 20:50:47,26923
5cd8d86210887400182db201,ma_choice_v4_observers_pilot2,5cd8d86210887400182db201,0,Closeness to parks,1,,,ew_att_rating,20126,,,,,2022-06-17 20:51:12,26924
5cd8d86210887400182db201,ma_choice_v4_observers_pilot2,5cd8d86210887400182db201,0,Noise pollution,1,,,ew_att_rating,20126,,,,,2022-06-17 20:51:12,26925
5cd8d86210887400182db201,ma_choice_v4_observers_pilot2,5cd8d86210887400182db201,0,Year building was built,1,,,ew_att_rating,20126,,,,,2022-06-17 20:51:12,26926
5cd8d86210887400182db201,ma_choice_v4_observers_pilot2,5cd8d86210887400182db201,0,Amount of traffic,1,,,ew_att_rating,20126,,,,,2022-06-17 20:51:12,26927
5cd8d86210887400182db201,ma_choice_v4_observers_pilot2,5cd8d86210887400182db201,8,Size of home,62,,,wad_att_rating,11076,,,,,2022-06-17 20:51:29,26928
5cd8d86210887400182db201,ma_choice_v4_observers_pilot2,5cd8d86210887400182db201,3,Year building was built,73,,,wad_att_rating,2593,,,,,2022-06-17 20:51:32,26929
5cd8d86210887400182db201,ma_choice_v4_observers_pilot2,5cd8d86210887400182db201,1,Noise pollution,77,,,wad_att_rating,5640,,,,,2022-06-17 20:51:37,26930
5cd8d86210887400182db201,ma_choice_v4_observers_pilot2,5cd8d86210887400182db201,6,Quality of heat/AC system,50,,,wad_att_rating,3234,,,,,2022-06-17 20:51:40,26931
5cd8d86210887400182db201,ma_choice_v4_observers_pilot2,5cd8d86210887400182db201,4,Size of yard,22,,,wad_att_rating,2790,,,,,2022-06-17 20:51:43,26932
5cd8d86210887400182db201,ma_choice_v4_observers_pilot2,5cd8d86210887400182db201,5,Quality of kitchen,54,,,wad_att_rating,3006,,,,,2022-06-17 20:51:46,26933
5cd8d86210887400182db201,ma_choice_v4_observers_pilot2,5cd8d86210887400182db201,2,Reputation of closest school,65,,,wad_att_rating,3193,,,,,2022-06-17 20:51:50,26934
5cd8d86210887400182db201,ma_choice_v4_observers_pilot2,5cd8d86210887400182db201,0,Closeness to parks,83,,,wad_att_rating,4597,,,,,2022-06-17 20:51:54,26935
5cd8d86210887400182db201,ma_choice_v4_observers_pilot2,5cd8d86210887400182db201,7,Amount of traffic,68,,,wad_att_rating,3481,,,,,2022-06-17 20:51:58,26936
5ed0f25c975bae000b4edf4a,ma_choice_v4_observers_pilot2,5ed0f25c975bae000b4edf4a,0,Reputation of closest school,1,,,ew_att_rating,26744,,,,,2022-06-17 20:52:55,26937
5ed0f25c975bae000b4edf4a,ma_choice_v4_observers_pilot2,5ed0f25c975bae000b4edf4a,0,Quality of heat/AC system,1,,,ew_att_rating,26744,,,,,2022-06-17 20:52:55,26938
5ed0f25c975bae000b4edf4a,ma_choice_v4_observers_pilot2,5ed0f25c975bae000b4edf4a,0,Reputation of closest school,1,,,lex_att_rating,2992,,,,,2022-06-17 20:53:01,26939
5ed0f25c975bae000b4edf4a,ma_choice_v4_observers_pilot2,5ed0f25c975bae000b4edf4a,0,Closeness to parks,90,,,wad_att_rating,6261,,,,,2022-06-17 20:53:11,26940
5ed0f25c975bae000b4edf4a,ma_choice_v4_observers_pilot2,5ed0f25c975bae000b4edf4a,5,Quality of kitchen,12,,,wad_att_rating,7184,,,,,2022-06-17 20:53:18,26941
5ed0f25c975bae000b4edf4a,ma_choice_v4_observers_pilot2,5ed0f25c975bae000b4edf4a,7,Amount of traffic,0,,,wad_att_rating,2971,,,,,2022-06-17 20:53:21,26942
5ed0f25c975bae000b4edf4a,ma_choice_v4_observers_pilot2,5ed0f25c975bae000b4edf4a,1,Noise pollution,0,,,wad_att_rating,2420,,,,,2022-06-17 20:53:23,26943
5ed0f25c975bae000b4edf4a,ma_choice_v4_observers_pilot2,5ed0f25c975bae000b4edf4a,3,Year building was built,0,,,wad_att_rating,2359,,,,,2022-06-17 20:53:26,26944
5ed0f25c975bae000b4edf4a,ma_choice_v4_observers_pilot2,5ed0f25c975bae000b4edf4a,4,Size of yard,0,,,wad_att_rating,2383,,,,,2022-06-17 20:53:28,26945
6006a7b7f57a4801ea3a8323,ma_choice_v4_observers_pilot2,6006a7b7f57a4801ea3a8323,0,Size of home,1,,,ew_att_rating,14603,,,,,2022-06-17 20:53:33,26946
6006a7b7f57a4801ea3a8323,ma_choice_v4_observers_pilot2,6006a7b7f57a4801ea3a8323,0,Year building was built,1,,,ew_att_rating,14603,,,,,2022-06-17 20:53:33,26947
5ed0f25c975bae000b4edf4a,ma_choice_v4_observers_pilot2,5ed0f25c975bae000b4edf4a,6,Quality of heat/AC system,62,,,wad_att_rating,6117,,,,,2022-06-17 20:53:34,26948
5ed0f25c975bae000b4edf4a,ma_choice_v4_observers_pilot2,5ed0f25c975bae000b4edf4a,2,Reputation of closest school,100,,,wad_att_rating,3728,,,,,2022-06-17 20:53:38,26949
5ed0f25c975bae000b4edf4a,ma_choice_v4_observers_pilot2,5ed0f25c975bae000b4edf4a,8,Size of home,11,,,wad_att_rating,4416,,,,,2022-06-17 20:53:43,26950
6006a7b7f57a4801ea3a8323,ma_choice_v4_observers_pilot2,6006a7b7f57a4801ea3a8323,0,Year building was built,1,,,lex_att_rating,10906,,,,,2022-06-17 20:53:52,26951
6006a7b7f57a4801ea3a8323,ma_choice_v4_observers_pilot2,6006a7b7f57a4801ea3a8323,0,Closeness to parks,6,,,wad_att_rating,4671,,,,,2022-06-17 20:54:02,26952
6006a7b7f57a4801ea3a8323,ma_choice_v4_observers_pilot2,6006a7b7f57a4801ea3a8323,3,Year building was built,100,,,wad_att_rating,3206,,,,,2022-06-17 20:54:05,26953
6006a7b7f57a4801ea3a8323,ma_choice_v4_observers_pilot2,6006a7b7f57a4801ea3a8323,8,Size of home,71,,,wad_att_rating,3043,,,,,2022-06-17 20:54:08,26954
6006a7b7f57a4801ea3a8323,ma_choice_v4_observers_pilot2,6006a7b7f57a4801ea3a8323,2,Reputation of closest school,10,,,wad_att_rating,2807,,,,,2022-06-17 20:54:11,26955
6006a7b7f57a4801ea3a8323,ma_choice_v4_observers_pilot2,6006a7b7f57a4801ea3a8323,5,Quality of kitchen,39,,,wad_att_rating,3388,,,,,2022-06-17 20:54:14,26956
6006a7b7f57a4801ea3a8323,ma_choice_v4_observers_pilot2,6006a7b7f57a4801ea3a8323,4,Size of yard,62,,,wad_att_rating,3896,,,,,2022-06-17 20:54:18,26957
6006a7b7f57a4801ea3a8323,ma_choice_v4_observers_pilot2,6006a7b7f57a4801ea3a8323,6,Quality of heat/AC system,47,,,wad_att_rating,3792,,,,,2022-06-17 20:54:22,26958
6006a7b7f57a4801ea3a8323,ma_choice_v4_observers_pilot2,6006a7b7f57a4801ea3a8323,7,Amount of traffic,19,,,wad_att_rating,2553,,,,,2022-06-17 20:54:24,26959
6006a7b7f57a4801ea3a8323,ma_choice_v4_observers_pilot2,6006a7b7f57a4801ea3a8323,1,Noise pollution,28,,,wad_att_rating,3095,,,,,2022-06-17 20:54:27,26960
5ed0f25c975bae000b4edf4a,ma_choice_v4_observers_pilot2,5ed0f25c975bae000b4edf4a,5,Quality of kitchen,-1,Moderate,Very Bad,direction,4811,,,,,2022-06-17 20:54:30,26961
5ed0f25c975bae000b4edf4a,ma_choice_v4_observers_pilot2,5ed0f25c975bae000b4edf4a,0,Closeness to parks,-1,15 min away,30 min away,direction,4507,,,,,2022-06-17 20:54:47,26962
5ed0f25c975bae000b4edf4a,ma_choice_v4_observers_pilot2,5ed0f25c975bae000b4edf4a,1,Noise pollution,-1,Very Low,Very High,direction,3761,,,,,2022-06-17 20:54:54,26963
5ed0f25c975bae000b4edf4a,ma_choice_v4_observers_pilot2,5ed0f25c975bae000b4edf4a,7,Amount of traffic,-1,A Little,A Lot,direction,1899,,,,,2022-06-17 20:54:59,26964
5ed0f25c975bae000b4edf4a,ma_choice_v4_observers_pilot2,5ed0f25c975bae000b4edf4a,4,Size of yard,-1,300 square feet,0 square feet,direction,2013,,,,,2022-06-17 20:55:08,26965
5ed0f25c975bae000b4edf4a,ma_choice_v4_observers_pilot2,5ed0f25c975bae000b4edf4a,6,Quality of heat/AC system,-1,Very Good,Very Bad,direction,3059,,,,,2022-06-17 20:55:16,26966
60906c79f8cfd718d6dcb3df,ma_choice_v4_observers_pilot2,60906c79f8cfd718d6dcb3df,0,Reputation of closest school,1,,,ew_att_rating,18433,,,,,2022-06-17 20:55:16,26967
60906c79f8cfd718d6dcb3df,ma_choice_v4_observers_pilot2,60906c79f8cfd718d6dcb3df,0,Quality of kitchen,1,,,ew_att_rating,18433,,,,,2022-06-17 20:55:16,26968
60906c79f8cfd718d6dcb3df,ma_choice_v4_observers_pilot2,60906c79f8cfd718d6dcb3df,0,Quality of heat/AC system,1,,,ew_att_rating,18433,,,,,2022-06-17 20:55:16,26969
5ed0f25c975bae000b4edf4a,ma_choice_v4_observers_pilot2,5ed0f25c975bae000b4edf4a,2,Reputation of closest school,-1,Very Good,Moderate,direction,2251,,,,,2022-06-17 20:55:22,26970
5ed0f25c975bae000b4edf4a,ma_choice_v4_observers_pilot2,5ed0f25c975bae000b4edf4a,8,Size of home,-1,1800 square feet,600 square feet,direction,2185,,,,,2022-06-17 20:55:28,26971
5ed0f25c975bae000b4edf4a,ma_choice_v4_observers_pilot2,5ed0f25c975bae000b4edf4a,3,Year building was built,-1,2020,1950,direction,1698,,,,,2022-06-17 20:55:33,26972
60906c79f8cfd718d6dcb3df,ma_choice_v4_observers_pilot2,60906c79f8cfd718d6dcb3df,7,Amount of traffic,36,,,wad_att_rating,6638,,,,,2022-06-17 20:55:33,26973
60906c79f8cfd718d6dcb3df,ma_choice_v4_observers_pilot2,60906c79f8cfd718d6dcb3df,1,Noise pollution,25,,,wad_att_rating,9687,,,,,2022-06-17 20:55:43,26974
60906c79f8cfd718d6dcb3df,ma_choice_v4_observers_pilot2,60906c79f8cfd718d6dcb3df,8,Size of home,62,,,wad_att_rating,4789,,,,,2022-06-17 20:55:48,26975
5fc30c35704ddd267cc9123f,ma_choice_v4_observers_pilot2,5fc30c35704ddd267cc9123f,0,Noise pollution,1,,,ew_att_rating,16359,,,,,2022-06-17 20:55:52,26976
5fc30c35704ddd267cc9123f,ma_choice_v4_observers_pilot2,5fc30c35704ddd267cc9123f,0,Amount of traffic,1,,,ew_att_rating,16359,,,,,2022-06-17 20:55:52,26977
5fc30c35704ddd267cc9123f,ma_choice_v4_observers_pilot2,5fc30c35704ddd267cc9123f,0,Size of yard,1,,,ew_att_rating,16359,,,,,2022-06-17 20:55:52,26978
5fc30c35704ddd267cc9123f,ma_choice_v4_observers_pilot2,5fc30c35704ddd267cc9123f,0,Year building was built,1,,,ew_att_rating,16359,,,,,2022-06-17 20:55:52,26979
60906c79f8cfd718d6dcb3df,ma_choice_v4_observers_pilot2,60906c79f8cfd718d6dcb3df,6,Quality of heat/AC system,74,,,wad_att_rating,9179,,,,,2022-06-17 20:55:57,26980
60906c79f8cfd718d6dcb3df,ma_choice_v4_observers_pilot2,60906c79f8cfd718d6dcb3df,4,Size of yard,62,,,wad_att_rating,4387,,,,,2022-06-17 20:56:01,26981
5fc30c35704ddd267cc9123f,ma_choice_v4_observers_pilot2,5fc30c35704ddd267cc9123f,1,Noise pollution,50,,,wad_att_rating,10442,,,,,2022-06-17 20:56:04,26982
60906c79f8cfd718d6dcb3df,ma_choice_v4_observers_pilot2,60906c79f8cfd718d6dcb3df,0,Closeness to parks,50,,,wad_att_rating,3948,,,,,2022-06-17 20:56:05,26983
60906c79f8cfd718d6dcb3df,ma_choice_v4_observers_pilot2,60906c79f8cfd718d6dcb3df,5,Quality of kitchen,87,,,wad_att_rating,4038,,,,,2022-06-17 20:56:09,26984
60b348a8332d26d4b88be6a1,ma_choice_v4_observers_pilot2,60b348a8332d26d4b88be6a1,0,Noise pollution,1,,,ew_att_rating,21628,,,,,2022-06-17 20:56:13,26985
60b348a8332d26d4b88be6a1,ma_choice_v4_observers_pilot2,60b348a8332d26d4b88be6a1,0,Quality of kitchen,1,,,ew_att_rating,21628,,,,,2022-06-17 20:56:13,26986
60b348a8332d26d4b88be6a1,ma_choice_v4_observers_pilot2,60b348a8332d26d4b88be6a1,0,Closeness to parks,1,,,ew_att_rating,21628,,,,,2022-06-17 20:56:13,26987
60b348a8332d26d4b88be6a1,ma_choice_v4_observers_pilot2,60b348a8332d26d4b88be6a1,0,Quality of heat/AC system,1,,,ew_att_rating,21628,,,,,2022-06-17 20:56:13,26988
60b348a8332d26d4b88be6a1,ma_choice_v4_observers_pilot2,60b348a8332d26d4b88be6a1,0,Size of home,1,,,ew_att_rating,21628,,,,,2022-06-17 20:56:13,26989
60b348a8332d26d4b88be6a1,ma_choice_v4_observers_pilot2,60b348a8332d26d4b88be6a1,0,Size of yard,1,,,ew_att_rating,21628,,,,,2022-06-17 20:56:13,26990
60906c79f8cfd718d6dcb3df,ma_choice_v4_observers_pilot2,60906c79f8cfd718d6dcb3df,2,Reputation of closest school,50,,,wad_att_rating,6908,,,,,2022-06-17 20:56:16,26991
5fc30c35704ddd267cc9123f,ma_choice_v4_observers_pilot2,5fc30c35704ddd267cc9123f,8,Size of home,37,,,wad_att_rating,15612,,,,,2022-06-17 20:56:20,26992
60906c79f8cfd718d6dcb3df,ma_choice_v4_observers_pilot2,60906c79f8cfd718d6dcb3df,3,Year building was built,26,,,wad_att_rating,4528,,,,,2022-06-17 20:56:21,26993
5fc30c35704ddd267cc9123f,ma_choice_v4_observers_pilot2,5fc30c35704ddd267cc9123f,2,Reputation of closest school,58,,,wad_att_rating,4668,,,,,2022-06-17 20:56:25,26994
60906c79f8cfd718d6dcb3df,ma_choice_v4_observers_pilot2,60906c79f8cfd718d6dcb3df,0,Quality of heat/AC system,1,,,lex_att_rating,3919,,,,,2022-06-17 20:56:33,26995
60b348a8332d26d4b88be6a1,ma_choice_v4_observers_pilot2,60b348a8332d26d4b88be6a1,1,Noise pollution,71,,,wad_att_rating,9822,,,,,2022-06-17 20:56:33,26996
60b348a8332d26d4b88be6a1,ma_choice_v4_observers_pilot2,60b348a8332d26d4b88be6a1,4,Size of yard,82,,,wad_att_rating,4693,,,,,2022-06-17 20:56:39,26997
60b348a8332d26d4b88be6a1,ma_choice_v4_observers_pilot2,60b348a8332d26d4b88be6a1,8,Size of home,95,,,wad_att_rating,5710,,,,,2022-06-17 20:56:44,26998
60b348a8332d26d4b88be6a1,ma_choice_v4_observers_pilot2,60b348a8332d26d4b88be6a1,6,Quality of heat/AC system,80,,,wad_att_rating,2942,,,,,2022-06-17 20:56:47,26999
60b348a8332d26d4b88be6a1,ma_choice_v4_observers_pilot2,60b348a8332d26d4b88be6a1,3,Year building was built,82,,,wad_att_rating,2517,,,,,2022-06-17 20:56:49,27000
60b348a8332d26d4b88be6a1,ma_choice_v4_observers_pilot2,60b348a8332d26d4b88be6a1,2,Reputation of closest school,84,,,wad_att_rating,2942,,,,,2022-06-17 20:56:52,27001
60b348a8332d26d4b88be6a1,ma_choice_v4_observers_pilot2,60b348a8332d26d4b88be6a1,7,Amount of traffic,69,,,wad_att_rating,2110,,,,,2022-06-17 20:56:54,27002
60b348a8332d26d4b88be6a1,ma_choice_v4_observers_pilot2,60b348a8332d26d4b88be6a1,0,Closeness to parks,86,,,wad_att_rating,3950,,,,,2022-06-17 20:56:58,27003
60b348a8332d26d4b88be6a1,ma_choice_v4_observers_pilot2,60b348a8332d26d4b88be6a1,5,Quality of kitchen,85,,,wad_att_rating,2776,,,,,2022-06-17 20:57:01,27004
60858334390f28f5a4fb79d3,ma_choice_v4_observers_pilot2,60858334390f28f5a4fb79d3,7,Amount of traffic,13,,,wad_att_rating,6448,,,,,2022-06-17 20:57:10,27005
60b348a8332d26d4b88be6a1,ma_choice_v4_observers_pilot2,60b348a8332d26d4b88be6a1,0,Noise pollution,1,,,lex_att_rating,6278,,,,,2022-06-17 20:57:11,27006
5e8a76b3939b3072dc76fb5c,ma_choice_v4_observers_pilot2,5e8a76b3939b3072dc76fb5c,0,Size of home,1,,,ew_att_rating,5526,,,,,2022-06-17 20:57:13,27007
5e8a76b3939b3072dc76fb5c,ma_choice_v4_observers_pilot2,5e8a76b3939b3072dc76fb5c,0,Size of yard,1,,,ew_att_rating,5526,,,,,2022-06-17 20:57:13,27008
5e8a76b3939b3072dc76fb5c,ma_choice_v4_observers_pilot2,5e8a76b3939b3072dc76fb5c,0,Closeness to parks,0,,,wad_att_rating,4283,,,,,2022-06-17 20:57:20,27009
60858334390f28f5a4fb79d3,ma_choice_v4_observers_pilot2,60858334390f28f5a4fb79d3,3,Year building was built,50,,,wad_att_rating,11713,,,,,2022-06-17 20:57:22,27010
60858334390f28f5a4fb79d3,ma_choice_v4_observers_pilot2,60858334390f28f5a4fb79d3,8,Size of home,76,,,wad_att_rating,4518,,,,,2022-06-17 20:57:26,27011
60858334390f28f5a4fb79d3,ma_choice_v4_observers_pilot2,60858334390f28f5a4fb79d3,0,Closeness to parks,26,,,wad_att_rating,3769,,,,,2022-06-17 20:57:30,27012
5e8a76b3939b3072dc76fb5c,ma_choice_v4_observers_pilot2,5e8a76b3939b3072dc76fb5c,6,Quality of heat/AC system,11,,,wad_att_rating,9655,,,,,2022-06-17 20:57:30,27013
5e8a76b3939b3072dc76fb5c,ma_choice_v4_observers_pilot2,5e8a76b3939b3072dc76fb5c,5,Quality of kitchen,11,,,wad_att_rating,2060,,,,,2022-06-17 20:57:32,27014
60858334390f28f5a4fb79d3,ma_choice_v4_observers_pilot2,60858334390f28f5a4fb79d3,6,Quality of heat/AC system,80,,,wad_att_rating,4003,,,,,2022-06-17 20:57:34,27015
5e8a76b3939b3072dc76fb5c,ma_choice_v4_observers_pilot2,5e8a76b3939b3072dc76fb5c,7,Amount of traffic,38,,,wad_att_rating,3193,,,,,2022-06-17 20:57:35,27016
60858334390f28f5a4fb79d3,ma_choice_v4_observers_pilot2,60858334390f28f5a4fb79d3,2,Reputation of closest school,67,,,wad_att_rating,3742,,,,,2022-06-17 20:57:37,27017
5e8a76b3939b3072dc76fb5c,ma_choice_v4_observers_pilot2,5e8a76b3939b3072dc76fb5c,3,Year building was built,23,,,wad_att_rating,2718,,,,,2022-06-17 20:57:38,27018
5e8a76b3939b3072dc76fb5c,ma_choice_v4_observers_pilot2,5e8a76b3939b3072dc76fb5c,8,Size of home,88,,,wad_att_rating,2998,,,,,2022-06-17 20:57:41,27019
60858334390f28f5a4fb79d3,ma_choice_v4_observers_pilot2,60858334390f28f5a4fb79d3,4,Size of yard,56,,,wad_att_rating,3261,,,,,2022-06-17 20:57:41,27020
5e8a76b3939b3072dc76fb5c,ma_choice_v4_observers_pilot2,5e8a76b3939b3072dc76fb5c,1,Noise pollution,23,,,wad_att_rating,3155,,,,,2022-06-17 20:57:44,27021
60858334390f28f5a4fb79d3,ma_choice_v4_observers_pilot2,60858334390f28f5a4fb79d3,1,Noise pollution,72,,,wad_att_rating,3905,,,,,2022-06-17 20:57:45,27022
5e8a76b3939b3072dc76fb5c,ma_choice_v4_observers_pilot2,5e8a76b3939b3072dc76fb5c,2,Reputation of closest school,13,,,wad_att_rating,2919,,,,,2022-06-17 20:57:47,27023
5fc30c35704ddd267cc9123f,ma_choice_v4_observers_pilot2,5fc30c35704ddd267cc9123f,5,Quality of kitchen,28,,,wad_att_rating,83971,,,,,2022-06-17 20:57:49,27024
60858334390f28f5a4fb79d3,ma_choice_v4_observers_pilot2,60858334390f28f5a4fb79d3,5,Quality of kitchen,88,,,wad_att_rating,3779,,,,,2022-06-17 20:57:49,27025
5e8a76b3939b3072dc76fb5c,ma_choice_v4_observers_pilot2,5e8a76b3939b3072dc76fb5c,4,Size of yard,88,,,wad_att_rating,3635,,,,,2022-06-17 20:57:51,27026
5cd8d86210887400182db201,ma_choice_v4_observers_pilot2,5cd8d86210887400182db201,6,Quality of heat/AC system,-1,Moderate,Bad,direction,9388,,,,,2022-06-17 20:57:53,27027
5e8a76b3939b3072dc76fb5c,ma_choice_v4_observers_pilot2,5e8a76b3939b3072dc76fb5c,0,Size of home,1,,,lex_att_rating,3783,,,,,2022-06-17 20:58:00,27028
60858334390f28f5a4fb79d3,ma_choice_v4_observers_pilot2,60858334390f28f5a4fb79d3,0,Year building was built,1,,,lex_att_rating,11129,,,,,2022-06-17 20:58:02,27029
5ca749ff98b35f0001f7559d,ma_choice_v4_observers_pilot2,5ca749ff98b35f0001f7559d,0,Size of home,1,,,lex_att_rating,8674,,,,,2022-06-17 20:58:03,27030
60906c79f8cfd718d6dcb3df,ma_choice_v4_observers_pilot2,60906c79f8cfd718d6dcb3df,0,Closeness to parks,-1,20 min away,30 min away,direction,4348,,,,,2022-06-17 20:58:04,27031
5cd8d86210887400182db201,ma_choice_v4_observers_pilot2,5cd8d86210887400182db201,3,Year building was built,-1,2020,1985,direction,7077,,,,,2022-06-17 20:58:06,27032
5fc30c35704ddd267cc9123f,ma_choice_v4_observers_pilot2,5fc30c35704ddd267cc9123f,6,Quality of heat/AC system,0,,,wad_att_rating,18407,,,,,2022-06-17 20:58:07,27033
60b348a8332d26d4b88be6a1,ma_choice_v4_observers_pilot2,60b348a8332d26d4b88be6a1,2,Reputation of closest school,-1,Very Good,Good,direction,8270,,,,,2022-06-17 20:58:11,27034
5fc30c35704ddd267cc9123f,ma_choice_v4_observers_pilot2,5fc30c35704ddd267cc9123f,0,Closeness to parks,0,,,wad_att_rating,6096,,,,,2022-06-17 20:58:13,27035
60906c79f8cfd718d6dcb3df,ma_choice_v4_observers_pilot2,60906c79f8cfd718d6dcb3df,7,Amount of traffic,-1,A Moderate Amount,A Lot,direction,3018,,,,,2022-06-17 20:58:13,27036
5cd8d86210887400182db201,ma_choice_v4_observers_pilot2,5cd8d86210887400182db201,2,Reputation of closest school,-1,Very Good,Moderate,direction,3185,,,,,2022-06-17 20:58:13,27037
60858334390f28f5a4fb79d3,ma_choice_v4_observers_pilot2,60858334390f28f5a4fb79d3,0,Reputation of closest school,1,,,ew_att_rating,13167,,,,,2022-06-17 20:58:17,27038
60858334390f28f5a4fb79d3,ma_choice_v4_observers_pilot2,60858334390f28f5a4fb79d3,0,Year building was built,1,,,ew_att_rating,13167,,,,,2022-06-17 20:58:17,27039
60858334390f28f5a4fb79d3,ma_choice_v4_observers_pilot2,60858334390f28f5a4fb79d3,0,Quality of heat/AC system,1,,,ew_att_rating,13167,,,,,2022-06-17 20:58:17,27040
60858334390f28f5a4fb79d3,ma_choice_v4_observers_pilot2,60858334390f28f5a4fb79d3,0,Size of home,1,,,ew_att_rating,13167,,,,,2022-06-17 20:58:17,27041
60858334390f28f5a4fb79d3,ma_choice_v4_observers_pilot2,60858334390f28f5a4fb79d3,0,Quality of kitchen,1,,,ew_att_rating,13167,,,,,2022-06-17 20:58:17,27042
5fc30c35704ddd267cc9123f,ma_choice_v4_observers_pilot2,5fc30c35704ddd267cc9123f,4,Size of yard,24,,,wad_att_rating,5603,,,,,2022-06-17 20:58:19,27043
60b348a8332d26d4b88be6a1,ma_choice_v4_observers_pilot2,60b348a8332d26d4b88be6a1,8,Size of home,-1,1200 square feet,600 square feet,direction,3398,,,,,2022-06-17 20:58:23,27044
60906c79f8cfd718d6dcb3df,ma_choice_v4_observers_pilot2,60906c79f8cfd718d6dcb3df,2,Reputation of closest school,-1,Very Good,Very Bad,direction,3809,,,,,2022-06-17 20:58:23,27045
5fc30c35704ddd267cc9123f,ma_choice_v4_observers_pilot2,5fc30c35704ddd267cc9123f,7,Amount of traffic,24,,,wad_att_rating,4308,,,,,2022-06-17 20:58:24,27046
5cd8d86210887400182db201,ma_choice_v4_observers_pilot2,5cd8d86210887400182db201,7,Amount of traffic,-1,A Little,A Lot,direction,6387,,,,,2022-06-17 20:58:26,27047
5fc30c35704ddd267cc9123f,ma_choice_v4_observers_pilot2,5fc30c35704ddd267cc9123f,3,Year building was built,77,,,wad_att_rating,7696,,,,,2022-06-17 20:58:31,27048
60b348a8332d26d4b88be6a1,ma_choice_v4_observers_pilot2,60b348a8332d26d4b88be6a1,4,Size of yard,-1,600 square feet,300 square feet,direction,2046,,,,,2022-06-17 20:58:31,27049
5cd8d86210887400182db201,ma_choice_v4_observers_pilot2,5cd8d86210887400182db201,4,Size of yard,-1,300 square feet,0 square feet,direction,2893,,,,,2022-06-17 20:58:32,27050
60b348a8332d26d4b88be6a1,ma_choice_v4_observers_pilot2,60b348a8332d26d4b88be6a1,0,Closeness to parks,-1,20 min away,15 min away,direction,1979,,,,,2022-06-17 20:58:36,27051
5fc30c35704ddd267cc9123f,ma_choice_v4_observers_pilot2,5fc30c35704ddd267cc9123f,0,Year building was built,1,,,lex_att_rating,4910,,,,,2022-06-17 20:58:38,27052
5cd8d86210887400182db201,ma_choice_v4_observers_pilot2,5cd8d86210887400182db201,8,Size of home,-1,1200 square feet,600 square feet,direction,2561,,,,,2022-06-17 20:58:39,27053
60b348a8332d26d4b88be6a1,ma_choice_v4_observers_pilot2,60b348a8332d26d4b88be6a1,6,Quality of heat/AC system,-1,Good,Moderate,direction,1477,,,,,2022-06-17 20:58:40,27054
60b348a8332d26d4b88be6a1,ma_choice_v4_observers_pilot2,60b348a8332d26d4b88be6a1,5,Quality of kitchen,-1,Very Good,Moderate,direction,1701,,,,,2022-06-17 20:58:45,27055
5cd8d86210887400182db201,ma_choice_v4_observers_pilot2,5cd8d86210887400182db201,1,Noise pollution,-1,Low,Low,direction,2506,,,,,2022-06-17 20:58:47,27056
60b348a8332d26d4b88be6a1,ma_choice_v4_observers_pilot2,60b348a8332d26d4b88be6a1,7,Amount of traffic,-1,A Moderate Amount,A Little,direction,1623,,,,,2022-06-17 20:58:50,27057
5cd8d86210887400182db201,ma_choice_v4_observers_pilot2,5cd8d86210887400182db201,5,Quality of kitchen,-1,Moderate,Very Bad,direction,1612,,,,,2022-06-17 20:58:52,27058
5e8a76b3939b3072dc76fb5c,ma_choice_v4_observers_pilot2,5e8a76b3939b3072dc76fb5c,2,Reputation of closest school,-1,Moderate,Moderate,direction,1685,,,,,2022-06-17 20:58:55,27059
60906c79f8cfd718d6dcb3df,ma_choice_v4_observers_pilot2,60906c79f8cfd718d6dcb3df,8,Size of home,-1,1200 square feet,600 square feet,direction,2208,,,,,2022-06-17 20:58:55,27060
5cd8d86210887400182db201,ma_choice_v4_observers_pilot2,5cd8d86210887400182db201,0,Closeness to parks,-1,15 min away,10 min away,direction,3258,,,,,2022-06-17 20:58:59,27061
5e8a76b3939b3072dc76fb5c,ma_choice_v4_observers_pilot2,5e8a76b3939b3072dc76fb5c,0,Closeness to parks,-1,25 min away,15 min away,direction,1709,,,,,2022-06-17 20:58:59,27062
60b348a8332d26d4b88be6a1,ma_choice_v4_observers_pilot2,60b348a8332d26d4b88be6a1,1,Noise pollution,-1,Moderate,High,direction,8319,,,,,2022-06-17 20:59:00,27063
60906c79f8cfd718d6dcb3df,ma_choice_v4_observers_pilot2,60906c79f8cfd718d6dcb3df,6,Quality of heat/AC system,-1,Very Good,Very Bad,direction,2308,,,,,2022-06-17 20:59:00,27064
60f3c1b003bbf8263f002824,ma_choice_v4_observers_pilot2,60f3c1b003bbf8263f002824,0,Closeness to parks,-1,20 min away,30 min away,direction,4859,,,,,2022-06-17 20:59:01,27065
5e8a76b3939b3072dc76fb5c,ma_choice_v4_observers_pilot2,5e8a76b3939b3072dc76fb5c,8,Size of home,-1,1800 square feet,600 square feet,direction,3208,,,,,2022-06-17 20:59:05,27066
60f3c1b003bbf8263f002824,ma_choice_v4_observers_pilot2,60f3c1b003bbf8263f002824,6,Quality of heat/AC system,-1,Moderate,Very Bad,direction,2468,,,,,2022-06-17 20:59:09,27067
5ca749ff98b35f0001f7559d,ma_choice_v4_observers_pilot2,5ca749ff98b35f0001f7559d,0,Noise pollution,1,,,ew_att_rating,24985,,,,,2022-06-17 20:59:09,27068
5ca749ff98b35f0001f7559d,ma_choice_v4_observers_pilot2,5ca749ff98b35f0001f7559d,0,Reputation of closest school,1,,,ew_att_rating,24985,,,,,2022-06-17 20:59:09,27069
5ca749ff98b35f0001f7559d,ma_choice_v4_observers_pilot2,5ca749ff98b35f0001f7559d,0,Amount of traffic,1,,,ew_att_rating,24985,,,,,2022-06-17 20:59:09,27070
5ca749ff98b35f0001f7559d,ma_choice_v4_observers_pilot2,5ca749ff98b35f0001f7559d,0,Size of yard,1,,,ew_att_rating,24985,,,,,2022-06-17 20:59:09,27071
5ca749ff98b35f0001f7559d,ma_choice_v4_observers_pilot2,5ca749ff98b35f0001f7559d,0,Size of home,1,,,ew_att_rating,24985,,,,,2022-06-17 20:59:09,27072
5e8a76b3939b3072dc76fb5c,ma_choice_v4_observers_pilot2,5e8a76b3939b3072dc76fb5c,7,Amount of traffic,-1,A Little,A Lot,direction,2262,,,,,2022-06-17 20:59:10,27073
6006a7b7f57a4801ea3a8323,ma_choice_v4_observers_pilot2,6006a7b7f57a4801ea3a8323,8,Size of home,-1,1800 square feet,600 square feet,direction,2751,,,,,2022-06-17 20:59:10,27074
5e8a76b3939b3072dc76fb5c,ma_choice_v4_observers_pilot2,5e8a76b3939b3072dc76fb5c,1,Noise pollution,-1,Low,High,direction,1026,,,,,2022-06-17 20:59:15,27075
60f3c1b003bbf8263f002824,ma_choice_v4_observers_pilot2,60f3c1b003bbf8263f002824,4,Size of yard,-1,600 square feet,0 square feet,direction,2644,,,,,2022-06-17 20:59:15,27076
60b348a8332d26d4b88be6a1,ma_choice_v4_observers_pilot2,60b348a8332d26d4b88be6a1,3,Year building was built,-1,2020,1985,direction,4726,,,,,2022-06-17 20:59:16,27077
6006a7b7f57a4801ea3a8323,ma_choice_v4_observers_pilot2,6006a7b7f57a4801ea3a8323,5,Quality of kitchen,-1,Very Good,Very Bad,direction,1877,,,,,2022-06-17 20:59:17,27078
5e8a76b3939b3072dc76fb5c,ma_choice_v4_observers_pilot2,5e8a76b3939b3072dc76fb5c,5,Quality of kitchen,-1,Moderate,Moderate,direction,802,,,,,2022-06-17 20:59:19,27079
60f3c1b003bbf8263f002824,ma_choice_v4_observers_pilot2,60f3c1b003bbf8263f002824,3,Year building was built,-1,2020,1950,direction,2487,,,,,2022-06-17 20:59:22,27080
6006a7b7f57a4801ea3a8323,ma_choice_v4_observers_pilot2,6006a7b7f57a4801ea3a8323,2,Reputation of closest school,-1,Very Good,Very Bad,direction,1213,,,,,2022-06-17 20:59:22,27081
5e8a76b3939b3072dc76fb5c,ma_choice_v4_observers_pilot2,5e8a76b3939b3072dc76fb5c,4,Size of yard,-1,600 square feet,0 square feet,direction,1638,,,,,2022-06-17 20:59:23,27082
5e8a76b3939b3072dc76fb5c,ma_choice_v4_observers_pilot2,5e8a76b3939b3072dc76fb5c,6,Quality of heat/AC system,-1,Bad,Bad,direction,1434,,,,,2022-06-17 20:59:28,27083
60f3c1b003bbf8263f002824,ma_choice_v4_observers_pilot2,60f3c1b003bbf8263f002824,5,Quality of kitchen,-1,Very Good,Very Bad,direction,2428,,,,,2022-06-17 20:59:28,27084
6006a7b7f57a4801ea3a8323,ma_choice_v4_observers_pilot2,6006a7b7f57a4801ea3a8323,0,Closeness to parks,-1,10 min away,30 min away,direction,3561,,,,,2022-06-17 20:59:29,27085
5e8a76b3939b3072dc76fb5c,ma_choice_v4_observers_pilot2,5e8a76b3939b3072dc76fb5c,3,Year building was built,-1,1985,1950,direction,1428,,,,,2022-06-17 20:59:32,27086
6006a7b7f57a4801ea3a8323,ma_choice_v4_observers_pilot2,6006a7b7f57a4801ea3a8323,1,Noise pollution,-1,Very Low,Very High,direction,2407,,,,,2022-06-17 20:59:35,27087
60f3c1b003bbf8263f002824,ma_choice_v4_observers_pilot2,60f3c1b003bbf8263f002824,2,Reputation of closest school,-1,Good,Very Bad,direction,3094,,,,,2022-06-17 20:59:35,27088
60906c79f8cfd718d6dcb3df,ma_choice_v4_observers_pilot2,60906c79f8cfd718d6dcb3df,4,Size of yard,-1,300 square feet,0 square feet,direction,1858,,,,,2022-06-17 20:59:38,27089
60f3c1b003bbf8263f002824,ma_choice_v4_observers_pilot2,60f3c1b003bbf8263f002824,1,Noise pollution,-1,Moderate,Low,direction,2290,,,,,2022-06-17 20:59:41,27090
6006a7b7f57a4801ea3a8323,ma_choice_v4_observers_pilot2,6006a7b7f57a4801ea3a8323,7,Amount of traffic,-1,Very Little,A Lot,direction,2450,,,,,2022-06-17 20:59:45,27091
5fc30c35704ddd267cc9123f,ma_choice_v4_observers_pilot2,5fc30c35704ddd267cc9123f,0,Closeness to parks,-1,15 min away,30 min away,direction,5849,,,,,2022-06-17 20:59:46,27092
60f3c1b003bbf8263f002824,ma_choice_v4_observers_pilot2,60f3c1b003bbf8263f002824,8,Size of home,-1,1800 square feet,600 square feet,direction,2252,,,,,2022-06-17 20:59:46,27093
60906c79f8cfd718d6dcb3df,ma_choice_v4_observers_pilot2,60906c79f8cfd718d6dcb3df,1,Noise pollution,-1,Moderate,Very High,direction,2798,,,,,2022-06-17 20:59:47,27094
60f3c1b003bbf8263f002824,ma_choice_v4_observers_pilot2,60f3c1b003bbf8263f002824,7,Amount of traffic,-1,A Moderate Amount,A Little,direction,2447,,,,,2022-06-17 20:59:51,27095
5ca749ff98b35f0001f7559d,ma_choice_v4_observers_pilot2,5ca749ff98b35f0001f7559d,8,Size of home,48,,,wad_att_rating,18101,,,,,2022-06-17 20:59:55,27096
5fc30c35704ddd267cc9123f,ma_choice_v4_observers_pilot2,5fc30c35704ddd267cc9123f,6,Quality of heat/AC system,-1,Very Good,Very Bad,direction,3233,,,,,2022-06-17 20:59:55,27097
6006a7b7f57a4801ea3a8323,ma_choice_v4_observers_pilot2,6006a7b7f57a4801ea3a8323,6,Quality of heat/AC system,-1,Very Good,Very Bad,direction,3026,,,,,2022-06-17 20:59:56,27098
60906c79f8cfd718d6dcb3df,ma_choice_v4_observers_pilot2,60906c79f8cfd718d6dcb3df,5,Quality of kitchen,-1,Very Good,Very Bad,direction,5929,,,,,2022-06-17 20:59:56,27099
5ca749ff98b35f0001f7559d,ma_choice_v4_observers_pilot2,5ca749ff98b35f0001f7559d,7,Amount of traffic,49,,,wad_att_rating,6182,,,,,2022-06-17 21:00:01,27100
5fc30c35704ddd267cc9123f,ma_choice_v4_observers_pilot2,5fc30c35704ddd267cc9123f,1,Noise pollution,-1,Very Low,Very High,direction,3282,,,,,2022-06-17 21:00:02,27101
