subject,version,assignmentId,trial,practice,opt1_id,opt2_id,attributes,opt1_values,opt2_values,choice,rt,stamp,id
5cfd4b59f7fd330016227259,ma_choice_v4_pilot4,5cfd4b59f7fd330016227259,0,1,-1,-1,"Noise pollution,Year building was built,Reputation of closest school,Size of home,Amount of traffic,Quality of kitchen,Quality of heat/AC system,Size of yard,Closeness to parks","Very Low,1973,Good,1100 square feet,A Moderate Amount,Good,Very Good,400 square feet,25 min away","High,2012,Bad,1300 square feet,Very Little,Bad,Very Bad,50 square feet,15 min away",0,18849,2022-06-06 19:36:52,56184
5cfd4b59f7fd330016227259,ma_choice_v4_pilot4,5cfd4b59f7fd330016227259,1,1,-1,-1,"Amount of traffic,Noise pollution,Quality of heat/AC system,Closeness to parks,Year building was built,Size of yard,Size of home,Reputation of closest school,Quality of kitchen","A Little,High,Moderate,20 min away,1993,100 square feet,1700 square feet,Very Good,Very Good","A Lot,Low,Very Good,30 min away,1953,250 square feet,800 square feet,Moderate,Bad",0,25937,2022-06-06 19:37:19,56185
5cfd4b59f7fd330016227259,ma_choice_v4_pilot4,5cfd4b59f7fd330016227259,2,1,-1,-1,"Size of home,Closeness to parks,Year building was built,Noise pollution,Amount of traffic,Quality of heat/AC system,Quality of kitchen,Size of yard,Reputation of closest school","1000 square feet,10 min away,1972,Very High,A Little,Very Good,Very Bad,350 square feet,Very Bad","1300 square feet,25 min away,2016,Low,A Lot,Moderate,Good,150 square feet,Moderate",1,24793,2022-06-06 19:37:45,56186
5cfd4b59f7fd330016227259,ma_choice_v4_pilot4,5cfd4b59f7fd330016227259,3,1,-1,-1,"Reputation of closest school,Closeness to parks,Quality of heat/AC system,Year building was built,Noise pollution,Amount of traffic,Size of yard,Size of home,Quality of kitchen","Good,20 min away,Very Good,1950,Very High,A Lot,500 square feet,600 square feet,Very Bad","Very Bad,10 min away,Moderate,1995,Very Low,Very Little,350 square feet,900 square feet,Good",1,15845,2022-06-06 19:38:02,56187
5cfd4b59f7fd330016227259,ma_choice_v4_pilot4,5cfd4b59f7fd330016227259,4,1,-1,-1,"Quality of heat/AC system,Reputation of closest school,Noise pollution,Amount of traffic,Size of home,Size of yard,Year building was built,Quality of kitchen,Closeness to parks","Very Bad,Good,Very Low,A Lot,1100 square feet,450 square feet,1974,Moderate,20 min away","Good,Very Bad,Very High,A Little,1500 square feet,200 square feet,2020,Very Bad,30 min away",0,19105,2022-06-06 19:38:22,56188
5cfd4b59f7fd330016227259,ma_choice_v4_pilot4,5cfd4b59f7fd330016227259,5,1,-1,-1,"Year building was built,Noise pollution,Size of home,Quality of kitchen,Quality of heat/AC system,Amount of traffic,Size of yard,Reputation of closest school,Closeness to parks","1950,Very High,1400 square feet,Moderate,Good,A Lot,150 square feet,Moderate,15 min away","2009,Low,1600 square feet,Very Good,Bad,Very Little,300 square feet,Very Good,30 min away",1,15839,2022-06-06 19:38:39,56189
5cfd4b59f7fd330016227259,ma_choice_v4_pilot4,5cfd4b59f7fd330016227259,6,1,-1,-1,"Reputation of closest school,Closeness to parks,Amount of traffic,Quality of heat/AC system,Quality of kitchen,Noise pollution,Year building was built,Size of home,Size of yard","Very Good,30 min away,A Lot,Very Bad,Moderate,Moderate,1970,1400 square feet,150 square feet","Moderate,20 min away,Very Little,Moderate,Very Bad,Very Low,2005,1800 square feet,450 square feet",1,26307,2022-06-06 19:39:06,56190
5cfd4b59f7fd330016227259,ma_choice_v4_pilot4,5cfd4b59f7fd330016227259,7,1,-1,-1,"Year building was built,Amount of traffic,Quality of kitchen,Noise pollution,Closeness to parks,Quality of heat/AC system,Size of home,Reputation of closest school,Size of yard","1971,A Lot,Good,Low,30 min away,Good,1100 square feet,Good,600 square feet","2008,Very Little,Bad,High,10 min away,Bad,1400 square feet,Very Bad,300 square feet",0,13433,2022-06-06 19:39:21,56191
5cfd4b59f7fd330016227259,ma_choice_v4_pilot4,5cfd4b59f7fd330016227259,8,1,-1,-1,"Amount of traffic,Closeness to parks,Year building was built,Quality of kitchen,Size of yard,Quality of heat/AC system,Noise pollution,Reputation of closest school,Size of home","A Little,30 min away,1974,Moderate,100 square feet,Very Bad,Very Low,Very Bad,1200 square feet","A Lot,10 min away,2013,Very Bad,350 square feet,Very Good,High,Good,700 square feet",0,14504,2022-06-06 19:39:36,56192
5cfd4b59f7fd330016227259,ma_choice_v4_pilot4,5cfd4b59f7fd330016227259,9,1,-1,-1,"Amount of traffic,Noise pollution,Size of home,Reputation of closest school,Quality of heat/AC system,Year building was built,Closeness to parks,Size of yard,Quality of kitchen","A Lot,Moderate,1100 square feet,Very Bad,Moderate,2006,15 min away,300 square feet,Very Bad","Very Little,Very Low,1500 square feet,Moderate,Very Good,1955,25 min away,500 square feet,Very Good",1,11008,2022-06-06 19:39:48,56193
5cfd4b59f7fd330016227259,ma_choice_v4_pilot4,5cfd4b59f7fd330016227259,0,0,-1,-1,"Amount of traffic,Noise pollution,Size of yard,Closeness to parks,Year building was built,Quality of kitchen,Quality of heat/AC system,Reputation of closest school,Size of home","Very Little,Very High,250 square feet,10 min away,1954,Bad,Moderate,Good,1200 square feet","A Moderate Amount,Very Low,0 square feet,20 min away,1980,Good,Very Good,Bad,1500 square feet",1,25303,2022-06-06 19:40:46,56194
5cfd4b59f7fd330016227259,ma_choice_v4_pilot4,5cfd4b59f7fd330016227259,1,0,-1,-1,"Noise pollution,Size of home,Quality of heat/AC system,Reputation of closest school,Amount of traffic,Size of yard,Year building was built,Closeness to parks,Quality of kitchen","High,1200 square feet,Moderate,Bad,A Moderate Amount,600 square feet,2000,20 min away,Bad","Very Low,700 square feet,Very Bad,Good,Very Little,350 square feet,1971,10 min away,Very Good",1,12680,2022-06-06 19:40:59,56195
5cfd4b59f7fd330016227259,ma_choice_v4_pilot4,5cfd4b59f7fd330016227259,2,0,-1,-1,"Noise pollution,Reputation of closest school,Closeness to parks,Amount of traffic,Size of home,Size of yard,Year building was built,Quality of kitchen,Quality of heat/AC system","Very High,Good,30 min away,Very Little,1200 square feet,500 square feet,2013,Very Good,Very Good","Very Low,Bad,10 min away,A Moderate Amount,900 square feet,200 square feet,1975,Moderate,Moderate",0,19182,2022-06-06 19:41:19,56196
5cfd4b59f7fd330016227259,ma_choice_v4_pilot4,5cfd4b59f7fd330016227259,3,0,-1,-1,"Closeness to parks,Amount of traffic,Noise pollution,Year building was built,Size of yard,Reputation of closest school,Quality of heat/AC system,Quality of kitchen,Size of home","10 min away,A Lot,Low,1987,100 square feet,Good,Moderate,Very Good,1000 square feet","30 min away,Very Little,High,2012,550 square feet,Bad,Very Bad,Bad,1300 square feet",0,16560,2022-06-06 19:41:37,56197
5cfd4b59f7fd330016227259,ma_choice_v4_pilot4,5cfd4b59f7fd330016227259,4,0,-1,-1,"Reputation of closest school,Closeness to parks,Size of home,Quality of heat/AC system,Noise pollution,Size of yard,Quality of kitchen,Amount of traffic,Year building was built","Good,20 min away,800 square feet,Good,Very High,600 square feet,Good,A Lot,1962","Bad,10 min away,1800 square feet,Very Bad,Very Low,250 square feet,Very Bad,A Little,2005",1,23093,2022-06-06 19:42:01,56198
5cfd4b59f7fd330016227259,ma_choice_v4_pilot4,5cfd4b59f7fd330016227259,5,0,-1,-1,"Size of home,Amount of traffic,Quality of kitchen,Size of yard,Reputation of closest school,Quality of heat/AC system,Noise pollution,Closeness to parks,Year building was built","1700 square feet,A Lot,Good,400 square feet,Very Bad,Moderate,Moderate,20 min away,1992","1200 square feet,A Little,Very Bad,200 square feet,Moderate,Very Bad,Very High,10 min away,1950",0,25159,2022-06-06 19:42:27,56199
5cfd4b59f7fd330016227259,ma_choice_v4_pilot4,5cfd4b59f7fd330016227259,6,0,-1,-1,"Amount of traffic,Quality of kitchen,Quality of heat/AC system,Size of home,Noise pollution,Closeness to parks,Size of yard,Reputation of closest school,Year building was built","A Lot,Moderate,Good,700 square feet,Very Low,20 min away,450 square feet,Very Good,1984","A Little,Very Bad,Bad,1500 square feet,Very High,10 min away,200 square feet,Bad,2013",0,10912,2022-06-06 19:42:39,56200
5cfd4b59f7fd330016227259,ma_choice_v4_pilot4,5cfd4b59f7fd330016227259,7,0,-1,-1,"Quality of heat/AC system,Reputation of closest school,Closeness to parks,Noise pollution,Size of home,Year building was built,Size of yard,Quality of kitchen,Amount of traffic","Very Bad,Good,25 min away,Very Low,1000 square feet,1983,450 square feet,Bad,A Lot","Moderate,Bad,15 min away,High,700 square feet,1963,200 square feet,Very Good,A Little",0,19408,2022-06-06 19:43:00,56201
5cfd4b59f7fd330016227259,ma_choice_v4_pilot4,5cfd4b59f7fd330016227259,8,0,-1,-1,"Closeness to parks,Size of yard,Year building was built,Quality of heat/AC system,Size of home,Reputation of closest school,Quality of kitchen,Noise pollution,Amount of traffic","15 min away,500 square feet,1993,Very Bad,1100 square feet,Very Bad,Very Bad,Very High,A Little","30 min away,50 square feet,2016,Good,1700 square feet,Good,Moderate,Moderate,A Lot",1,25080,2022-06-06 19:43:26,56202
6111e37fe81d1932ae8de5e8,ma_choice_v4_pilot4,6111e37fe81d1932ae8de5e8,0,1,-1,-1,"Amount of traffic,Quality of kitchen,Quality of heat/AC system,Size of yard,Reputation of closest school,Size of home,Closeness to parks,Noise pollution,Year building was built","A Lot,Moderate,Very Bad,450 square feet,Good,1100 square feet,20 min away,Very Low,1974","A Little,Very Bad,Good,200 square feet,Very Bad,1500 square feet,30 min away,Very High,2020",0,25145,2022-06-06 19:43:34,56203
5cfd4b59f7fd330016227259,ma_choice_v4_pilot4,5cfd4b59f7fd330016227259,9,0,-1,-1,"Quality of heat/AC system,Closeness to parks,Year building was built,Noise pollution,Amount of traffic,Size of home,Size of yard,Reputation of closest school,Quality of kitchen","Good,30 min away,2015,Moderate,A Little,1100 square feet,100 square feet,Very Good,Moderate","Bad,10 min away,1962,Very High,A Lot,1400 square feet,550 square feet,Bad,Very Good",0,12265,2022-06-06 19:43:39,56204
6111e37fe81d1932ae8de5e8,ma_choice_v4_pilot4,6111e37fe81d1932ae8de5e8,1,1,-1,-1,"Quality of heat/AC system,Year building was built,Amount of traffic,Closeness to parks,Reputation of closest school,Size of home,Size of yard,Quality of kitchen,Noise pollution","Very Good,1955,Very Little,25 min away,Moderate,1500 square feet,500 square feet,Very Good,Very Low","Moderate,2006,A Lot,15 min away,Very Bad,1100 square feet,300 square feet,Very Bad,Moderate",0,16622,2022-06-06 19:43:51,56205
6111e37fe81d1932ae8de5e8,ma_choice_v4_pilot4,6111e37fe81d1932ae8de5e8,2,1,-1,-1,"Quality of kitchen,Size of yard,Closeness to parks,Size of home,Year building was built,Noise pollution,Reputation of closest school,Amount of traffic,Quality of heat/AC system","Moderate,100 square feet,30 min away,1200 square feet,1974,Very Low,Very Bad,A Little,Very Bad","Very Bad,350 square feet,10 min away,700 square feet,2013,High,Good,A Lot,Very Good",1,15096,2022-06-06 19:44:07,56206
5cfd4b59f7fd330016227259,ma_choice_v4_pilot4,5cfd4b59f7fd330016227259,10,0,-1,-1,"Size of home,Reputation of closest school,Noise pollution,Closeness to parks,Size of yard,Quality of kitchen,Quality of heat/AC system,Amount of traffic,Year building was built","1700 square feet,Bad,Low,10 min away,450 square feet,Bad,Moderate,A Lot,1981","700 square feet,Very Good,High,25 min away,250 square feet,Very Good,Very Good,A Little,1957",0,35389,2022-06-06 19:44:15,56207
6111e37fe81d1932ae8de5e8,ma_choice_v4_pilot4,6111e37fe81d1932ae8de5e8,3,1,-1,-1,"Size of home,Quality of kitchen,Reputation of closest school,Year building was built,Closeness to parks,Amount of traffic,Quality of heat/AC system,Noise pollution,Size of yard","1000 square feet,Very Bad,Very Bad,1972,10 min away,A Little,Very Good,Very High,350 square feet","1300 square feet,Good,Moderate,2016,25 min away,A Lot,Moderate,Low,150 square feet",1,17296,2022-06-06 19:44:26,56208
5cfd4b59f7fd330016227259,ma_choice_v4_pilot4,5cfd4b59f7fd330016227259,11,0,-1,-1,"Reputation of closest school,Closeness to parks,Year building was built,Quality of heat/AC system,Size of home,Noise pollution,Amount of traffic,Size of yard,Quality of kitchen","Very Good,30 min away,1951,Very Good,1100 square feet,Very High,Very Little,100 square feet,Good","Moderate,15 min away,2006,Moderate,1400 square feet,Low,A Lot,300 square feet,Very Bad",0,18431,2022-06-06 19:44:35,56209
6111e37fe81d1932ae8de5e8,ma_choice_v4_pilot4,6111e37fe81d1932ae8de5e8,4,1,-1,-1,"Reputation of closest school,Amount of traffic,Year building was built,Size of home,Size of yard,Noise pollution,Closeness to parks,Quality of kitchen,Quality of heat/AC system","Very Bad,Very Little,2008,1400 square feet,300 square feet,High,10 min away,Bad,Bad","Good,A Lot,1971,1100 square feet,600 square feet,Low,30 min away,Good,Good",1,15108,2022-06-06 19:44:42,56210
5cfd4b59f7fd330016227259,ma_choice_v4_pilot4,5cfd4b59f7fd330016227259,12,0,-1,-1,"Size of home,Year building was built,Amount of traffic,Reputation of closest school,Closeness to parks,Quality of kitchen,Quality of heat/AC system,Noise pollution,Size of yard","1000 square feet,1983,A Moderate Amount,Bad,10 min away,Very Bad,Very Good,Low,250 square feet","1500 square feet,2012,Very Little,Good,25 min away,Moderate,Moderate,High,550 square feet",1,14184,2022-06-06 19:44:50,56211
6111e37fe81d1932ae8de5e8,ma_choice_v4_pilot4,6111e37fe81d1932ae8de5e8,5,1,-1,-1,"Reputation of closest school,Amount of traffic,Size of home,Year building was built,Quality of heat/AC system,Quality of kitchen,Closeness to parks,Noise pollution,Size of yard","Very Bad,Very Little,900 square feet,1995,Moderate,Good,10 min away,Very Low,350 square feet","Good,A Lot,600 square feet,1950,Very Good,Very Bad,20 min away,Very High,500 square feet",0,13271,2022-06-06 19:44:56,56212
5cfd4b59f7fd330016227259,ma_choice_v4_pilot4,5cfd4b59f7fd330016227259,13,0,-1,-1,"Amount of traffic,Reputation of closest school,Closeness to parks,Size of yard,Quality of kitchen,Year building was built,Quality of heat/AC system,Noise pollution,Size of home","A Moderate Amount,Bad,10 min away,150 square feet,Moderate,2003,Very Bad,High,900 square feet","Very Little,Good,20 min away,350 square feet,Very Good,1982,Moderate,Low,1500 square feet",1,15181,2022-06-06 19:45:06,56213
6111e37fe81d1932ae8de5e8,ma_choice_v4_pilot4,6111e37fe81d1932ae8de5e8,6,1,-1,-1,"Year building was built,Size of yard,Reputation of closest school,Amount of traffic,Closeness to parks,Quality of heat/AC system,Size of home,Noise pollution,Quality of kitchen","1970,150 square feet,Very Good,A Lot,30 min away,Very Bad,1400 square feet,Moderate,Moderate","2005,450 square feet,Moderate,Very Little,20 min away,Moderate,1800 square feet,Very Low,Very Bad",0,14291,2022-06-06 19:45:11,56214
6111e37fe81d1932ae8de5e8,ma_choice_v4_pilot4,6111e37fe81d1932ae8de5e8,7,1,-1,-1,"Size of yard,Quality of kitchen,Noise pollution,Amount of traffic,Closeness to parks,Reputation of closest school,Quality of heat/AC system,Year building was built,Size of home","150 square feet,Moderate,Very High,A Lot,15 min away,Moderate,Good,1950,1400 square feet","300 square feet,Very Good,Low,Very Little,30 min away,Very Good,Bad,2009,1600 square feet",1,14838,2022-06-06 19:45:27,56215
5cfd4b59f7fd330016227259,ma_choice_v4_pilot4,5cfd4b59f7fd330016227259,14,0,-1,-1,"Size of yard,Size of home,Quality of kitchen,Closeness to parks,Quality of heat/AC system,Year building was built,Reputation of closest school,Amount of traffic,Noise pollution","350 square feet,1100 square feet,Very Good,30 min away,Very Bad,1987,Very Good,A Little,Very Low","150 square feet,600 square feet,Very Bad,15 min away,Very Good,1956,Very Bad,A Lot,High",0,23527,2022-06-06 19:45:31,56216
6111e37fe81d1932ae8de5e8,ma_choice_v4_pilot4,6111e37fe81d1932ae8de5e8,8,1,-1,-1,"Quality of heat/AC system,Reputation of closest school,Noise pollution,Amount of traffic,Size of home,Closeness to parks,Size of yard,Year building was built,Quality of kitchen","Moderate,Very Good,High,A Little,1700 square feet,20 min away,100 square feet,1993,Very Good","Very Good,Moderate,Low,A Lot,800 square feet,30 min away,250 square feet,1953,Bad",0,20142,2022-06-06 19:45:48,56217
5cfd4b59f7fd330016227259,ma_choice_v4_pilot4,5cfd4b59f7fd330016227259,15,0,-1,-1,"Size of home,Quality of kitchen,Size of yard,Quality of heat/AC system,Reputation of closest school,Closeness to parks,Noise pollution,Year building was built,Amount of traffic","1800 square feet,Moderate,50 square feet,Very Good,Moderate,10 min away,Very Low,1958,Very Little","600 square feet,Very Good,300 square feet,Moderate,Very Good,20 min away,High,2008,A Moderate Amount",0,17003,2022-06-06 19:45:49,56218
6111e37fe81d1932ae8de5e8,ma_choice_v4_pilot4,6111e37fe81d1932ae8de5e8,9,1,-1,-1,"Amount of traffic,Quality of kitchen,Year building was built,Noise pollution,Closeness to parks,Reputation of closest school,Quality of heat/AC system,Size of yard,Size of home","Very Little,Bad,2012,High,15 min away,Bad,Very Bad,50 square feet,1300 square feet","A Moderate Amount,Good,1973,Very Low,25 min away,Good,Very Good,400 square feet,1100 square feet",1,9257,2022-06-06 19:45:59,56219
5cfd4b59f7fd330016227259,ma_choice_v4_pilot4,5cfd4b59f7fd330016227259,16,0,-1,-1,"Quality of kitchen,Closeness to parks,Quality of heat/AC system,Noise pollution,Reputation of closest school,Amount of traffic,Year building was built,Size of home,Size of yard","Bad,30 min away,Very Bad,Low,Very Good,Very Little,2002,900 square feet,500 square feet","Good,20 min away,Moderate,High,Very Bad,A Moderate Amount,1961,1700 square feet,250 square feet",0,13999,2022-06-06 19:46:04,56220
5cfd4b59f7fd330016227259,ma_choice_v4_pilot4,5cfd4b59f7fd330016227259,17,0,-1,-1,"Amount of traffic,Quality of kitchen,Quality of heat/AC system,Closeness to parks,Reputation of closest school,Size of home,Noise pollution,Year building was built,Size of yard","A Little,Good,Very Bad,10 min away,Good,1000 square feet,Low,1953,250 square feet","A Lot,Very Bad,Good,25 min away,Very Bad,700 square feet,Very High,1993,400 square feet",0,17522,2022-06-06 19:46:22,56221
6111e37fe81d1932ae8de5e8,ma_choice_v4_pilot4,6111e37fe81d1932ae8de5e8,0,0,-1,-1,"Amount of traffic,Size of home,Reputation of closest school,Closeness to parks,Noise pollution,Year building was built,Quality of kitchen,Quality of heat/AC system,Size of yard","Very Little,900 square feet,Very Good,30 min away,Very High,1970,Very Good,Good,550 square feet","A Moderate Amount,1700 square feet,Bad,20 min away,Moderate,2010,Very Bad,Bad,300 square feet",0,7846,2022-06-06 19:46:24,56222
6111e37fe81d1932ae8de5e8,ma_choice_v4_pilot4,6111e37fe81d1932ae8de5e8,1,0,-1,-1,"Quality of kitchen,Year building was built,Noise pollution,Size of home,Reputation of closest school,Amount of traffic,Size of yard,Quality of heat/AC system,Closeness to parks","Very Good,1981,High,900 square feet,Good,A Lot,50 square feet,Good,30 min away","Very Bad,2019,Low,1300 square feet,Very Bad,A Little,450 square feet,Bad,20 min away",0,9009,2022-06-06 19:46:34,56223
6111e37fe81d1932ae8de5e8,ma_choice_v4_pilot4,6111e37fe81d1932ae8de5e8,2,0,-1,-1,"Quality of kitchen,Size of yard,Year building was built,Reputation of closest school,Amount of traffic,Noise pollution,Closeness to parks,Quality of heat/AC system,Size of home","Bad,150 square feet,2010,Very Bad,A Little,Low,25 min away,Bad,700 square feet","Very Good,400 square feet,1986,Good,A Lot,Very High,15 min away,Good,1500 square feet",1,7445,2022-06-06 19:46:43,56224
6111e37fe81d1932ae8de5e8,ma_choice_v4_pilot4,6111e37fe81d1932ae8de5e8,3,0,-1,-1,"Size of yard,Quality of heat/AC system,Noise pollution,Year building was built,Reputation of closest school,Quality of kitchen,Size of home,Amount of traffic,Closeness to parks","300 square feet,Moderate,Low,2006,Moderate,Very Bad,1400 square feet,A Lot,15 min away","100 square feet,Very Good,Very High,1951,Very Good,Good,1100 square feet,Very Little,30 min away",1,11746,2022-06-06 19:46:55,56225
5cfd4b59f7fd330016227259,ma_choice_v4_pilot4,5cfd4b59f7fd330016227259,18,0,-1,-1,"Noise pollution,Size of yard,Reputation of closest school,Year building was built,Amount of traffic,Quality of kitchen,Quality of heat/AC system,Closeness to parks,Size of home","Low,200 square feet,Moderate,1991,A Lot,Moderate,Very Bad,15 min away,1300 square feet","Very High,500 square feet,Very Bad,2015,A Little,Very Bad,Very Good,25 min away,1000 square feet",1,39263,2022-06-06 19:47:03,56226
6111e37fe81d1932ae8de5e8,ma_choice_v4_pilot4,6111e37fe81d1932ae8de5e8,4,0,-1,-1,"Noise pollution,Quality of kitchen,Quality of heat/AC system,Size of yard,Reputation of closest school,Size of home,Amount of traffic,Closeness to parks,Year building was built","Low,Good,Moderate,300 square feet,Very Bad,1200 square feet,A Lot,10 min away,1951","High,Bad,Very Good,500 square feet,Good,900 square feet,A Little,30 min away,1972",1,27361,2022-06-06 19:47:24,56227
6111e37fe81d1932ae8de5e8,ma_choice_v4_pilot4,6111e37fe81d1932ae8de5e8,5,0,-1,-1,"Closeness to parks,Quality of heat/AC system,Noise pollution,Quality of kitchen,Amount of traffic,Size of yard,Reputation of closest school,Year building was built,Size of home","10 min away,Very Good,Low,Very Good,A Lot,50 square feet,Good,1953,1700 square feet","30 min away,Very Bad,High,Very Bad,A Little,300 square feet,Bad,1977,1000 square feet",0,7607,2022-06-06 19:47:32,56228
5cfd4b59f7fd330016227259,ma_choice_v4_pilot4,5cfd4b59f7fd330016227259,19,0,-1,-1,"Size of home,Noise pollution,Closeness to parks,Size of yard,Quality of heat/AC system,Reputation of closest school,Amount of traffic,Quality of kitchen,Year building was built","1500 square feet,Moderate,10 min away,200 square feet,Bad,Bad,Very Little,Very Bad,1995","1700 square feet,Very High,25 min away,50 square feet,Very Good,Good,A Lot,Moderate,1958",0,29048,2022-06-06 19:47:33,56229
6111e37fe81d1932ae8de5e8,ma_choice_v4_pilot4,6111e37fe81d1932ae8de5e8,6,0,-1,-1,"Year building was built,Amount of traffic,Quality of kitchen,Closeness to parks,Quality of heat/AC system,Reputation of closest school,Size of yard,Noise pollution,Size of home","1950,Very Little,Very Bad,25 min away,Very Good,Good,100 square feet,Low,800 square feet","1986,A Moderate Amount,Very Good,10 min away,Bad,Very Bad,500 square feet,High,1800 square feet",1,8357,2022-06-06 19:47:42,56230
5cfd4b59f7fd330016227259,ma_choice_v4_pilot4,5cfd4b59f7fd330016227259,20,0,-1,-1,"Reputation of closest school,Amount of traffic,Noise pollution,Quality of kitchen,Size of home,Quality of heat/AC system,Size of yard,Closeness to parks,Year building was built","Good,A Little,Very Low,Moderate,1500 square feet,Moderate,250 square feet,25 min away,1997","Very Bad,A Lot,High,Very Good,800 square feet,Very Bad,500 square feet,15 min away,1963",0,10376,2022-06-06 19:47:44,56231
6111e37fe81d1932ae8de5e8,ma_choice_v4_pilot4,6111e37fe81d1932ae8de5e8,7,0,-1,-1,"Quality of heat/AC system,Year building was built,Reputation of closest school,Size of home,Closeness to parks,Quality of kitchen,Size of yard,Noise pollution,Amount of traffic","Very Bad,1993,Very Bad,1100 square feet,15 min away,Very Bad,500 square feet,Very High,A Little","Good,2016,Good,1700 square feet,30 min away,Moderate,50 square feet,Moderate,A Lot",1,7917,2022-06-06 19:47:50,56232
5cfd4b59f7fd330016227259,ma_choice_v4_pilot4,5cfd4b59f7fd330016227259,21,0,-1,-1,"Reputation of closest school,Amount of traffic,Noise pollution,Year building was built,Size of yard,Quality of kitchen,Size of home,Closeness to parks,Quality of heat/AC system","Very Good,A Lot,Very Low,2018,50 square feet,Bad,800 square feet,10 min away,Very Bad","Bad,A Little,High,1964,300 square feet,Good,1100 square feet,20 min away,Moderate",1,10200,2022-06-06 19:47:55,56233
6111e37fe81d1932ae8de5e8,ma_choice_v4_pilot4,6111e37fe81d1932ae8de5e8,8,0,-1,-1,"Closeness to parks,Quality of kitchen,Quality of heat/AC system,Year building was built,Reputation of closest school,Amount of traffic,Noise pollution,Size of yard,Size of home","15 min away,Good,Very Bad,2012,Very Good,Very Little,Very Low,200 square feet,1200 square feet","25 min away,Bad,Good,1985,Bad,A Moderate Amount,Very High,550 square feet,700 square feet",0,22358,2022-06-06 19:48:14,56234
5cfd4b59f7fd330016227259,ma_choice_v4_pilot4,5cfd4b59f7fd330016227259,22,0,-1,-1,"Quality of kitchen,Size of yard,Reputation of closest school,Size of home,Noise pollution,Year building was built,Amount of traffic,Quality of heat/AC system,Closeness to parks","Very Good,500 square feet,Moderate,1600 square feet,High,1968,A Lot,Very Good,10 min away","Bad,350 square feet,Very Good,1100 square feet,Very Low,2006,A Little,Very Bad,20 min away",1,18654,2022-06-06 19:48:15,56235
6111e37fe81d1932ae8de5e8,ma_choice_v4_pilot4,6111e37fe81d1932ae8de5e8,9,0,-1,-1,"Year building was built,Size of yard,Size of home,Closeness to parks,Amount of traffic,Quality of heat/AC system,Noise pollution,Quality of kitchen,Reputation of closest school","1987,350 square feet,900 square feet,25 min away,A Little,Very Bad,High,Very Bad,Bad","1952,50 square feet,1800 square feet,10 min away,A Lot,Very Good,Low,Very Good,Very Good",1,9297,2022-06-06 19:48:24,56236
5cfd4b59f7fd330016227259,ma_choice_v4_pilot4,5cfd4b59f7fd330016227259,23,0,-1,-1,"Size of home,Quality of heat/AC system,Size of yard,Closeness to parks,Reputation of closest school,Quality of kitchen,Year building was built,Amount of traffic,Noise pollution","700 square feet,Moderate,300 square feet,10 min away,Very Bad,Moderate,1960,A Moderate Amount,High","1100 square feet,Very Good,50 square feet,25 min away,Moderate,Very Good,2016,Very Little,Low",1,19638,2022-06-06 19:48:35,56237
6111e37fe81d1932ae8de5e8,ma_choice_v4_pilot4,6111e37fe81d1932ae8de5e8,10,0,-1,-1,"Quality of kitchen,Closeness to parks,Size of yard,Noise pollution,Reputation of closest school,Amount of traffic,Year building was built,Quality of heat/AC system,Size of home","Very Good,10 min away,350 square feet,Very Low,Bad,A Lot,1984,Very Bad,1300 square feet","Moderate,30 min away,0 square feet,Moderate,Good,Very Little,1954,Very Good,700 square feet",1,19004,2022-06-06 19:48:44,56238
6111e37fe81d1932ae8de5e8,ma_choice_v4_pilot4,6111e37fe81d1932ae8de5e8,11,0,-1,-1,"Noise pollution,Size of home,Reputation of closest school,Quality of heat/AC system,Amount of traffic,Year building was built,Closeness to parks,Size of yard,Quality of kitchen","Low,900 square feet,Very Good,Very Bad,Very Little,2002,30 min away,500 square feet,Bad","High,1700 square feet,Very Bad,Moderate,A Moderate Amount,1961,20 min away,250 square feet,Good",1,16624,2022-06-06 19:49:02,56239
5cfd4b59f7fd330016227259,ma_choice_v4_pilot4,5cfd4b59f7fd330016227259,24,0,-1,-1,"Quality of kitchen,Size of yard,Noise pollution,Year building was built,Reputation of closest school,Amount of traffic,Quality of heat/AC system,Closeness to parks,Size of home","Very Bad,350 square feet,Very Low,1992,Bad,A Lot,Good,25 min away,1000 square feet","Very Good,50 square feet,Very High,1956,Very Good,Very Little,Bad,10 min away,1600 square feet",0,29994,2022-06-06 19:49:06,56240
6111e37fe81d1932ae8de5e8,ma_choice_v4_pilot4,6111e37fe81d1932ae8de5e8,12,0,-1,-1,"Size of yard,Amount of traffic,Reputation of closest school,Noise pollution,Quality of heat/AC system,Quality of kitchen,Closeness to parks,Size of home,Year building was built","200 square feet,A Little,Bad,Very High,Bad,Very Bad,10 min away,1500 square feet,2013","450 square feet,A Lot,Very Good,Very Low,Good,Moderate,20 min away,700 square feet,1984",1,14034,2022-06-06 19:49:17,56241
5cfd4b59f7fd330016227259,ma_choice_v4_pilot4,5cfd4b59f7fd330016227259,25,0,-1,-1,"Quality of heat/AC system,Size of yard,Reputation of closest school,Amount of traffic,Closeness to parks,Noise pollution,Size of home,Year building was built,Quality of kitchen","Good,450 square feet,Good,A Moderate Amount,20 min away,Very High,1400 square feet,2008,Moderate","Bad,100 square feet,Bad,Very Little,10 min away,Very Low,1000 square feet,1954,Very Bad",1,16727,2022-06-06 19:49:24,56242
6111e37fe81d1932ae8de5e8,ma_choice_v4_pilot4,6111e37fe81d1932ae8de5e8,13,0,-1,-1,"Size of home,Amount of traffic,Reputation of closest school,Size of yard,Noise pollution,Quality of kitchen,Closeness to parks,Year building was built,Quality of heat/AC system","1700 square feet,A Lot,Bad,0 square feet,Very High,Very Good,15 min away,2007,Good","1200 square feet,A Little,Very Good,250 square feet,Low,Very Bad,25 min away,1977,Very Bad",0,10569,2022-06-06 19:49:29,56243
5cfd4b59f7fd330016227259,ma_choice_v4_pilot4,5cfd4b59f7fd330016227259,26,0,-1,-1,"Year building was built,Closeness to parks,Reputation of closest school,Quality of heat/AC system,Amount of traffic,Quality of kitchen,Noise pollution,Size of home,Size of yard","2012,15 min away,Very Good,Very Bad,Very Little,Good,Very Low,1200 square feet,200 square feet","1985,25 min away,Bad,Good,A Moderate Amount,Bad,Very High,700 square feet,550 square feet",0,17807,2022-06-06 19:49:43,56244
6111e37fe81d1932ae8de5e8,ma_choice_v4_pilot4,6111e37fe81d1932ae8de5e8,14,0,-1,-1,"Closeness to parks,Quality of kitchen,Size of yard,Year building was built,Amount of traffic,Noise pollution,Quality of heat/AC system,Reputation of closest school,Size of home","10 min away,Very Bad,50 square feet,1965,A Lot,High,Good,Moderate,1200 square feet","25 min away,Good,300 square feet,2001,Very Little,Low,Very Bad,Very Good,900 square feet",1,21755,2022-06-06 19:49:51,56245
5cfd4b59f7fd330016227259,ma_choice_v4_pilot4,5cfd4b59f7fd330016227259,27,0,-1,-1,"Quality of heat/AC system,Closeness to parks,Quality of kitchen,Year building was built,Size of home,Reputation of closest school,Amount of traffic,Size of yard,Noise pollution","Very Bad,25 min away,Very Good,1953,1300 square feet,Good,A Moderate Amount,450 square feet,Very Low","Very Good,15 min away,Moderate,1987,1600 square feet,Bad,Very Little,0 square feet,Very High",0,10563,2022-06-06 19:49:55,56246
5cfd4b59f7fd330016227259,ma_choice_v4_pilot4,5cfd4b59f7fd330016227259,28,0,-1,-1,"Quality of kitchen,Reputation of closest school,Noise pollution,Size of yard,Year building was built,Size of home,Amount of traffic,Quality of heat/AC system,Closeness to parks","Bad,Good,Very High,350 square feet,2007,1100 square feet,A Moderate Amount,Very Good,30 min away","Good,Very Bad,Low,600 square feet,1984,1500 square feet,Very Little,Bad,15 min away",1,13460,2022-06-06 19:50:09,56247
6111e37fe81d1932ae8de5e8,ma_choice_v4_pilot4,6111e37fe81d1932ae8de5e8,15,0,-1,-1,"Amount of traffic,Quality of heat/AC system,Closeness to parks,Size of home,Year building was built,Noise pollution,Size of yard,Quality of kitchen,Reputation of closest school","A Lot,Good,25 min away,700 square feet,1993,Very High,400 square feet,Very Bad,Very Bad","A Little,Very Bad,10 min away,1000 square feet,1953,Low,250 square feet,Good,Good",1,22315,2022-06-06 19:50:14,56248
6111e37fe81d1932ae8de5e8,ma_choice_v4_pilot4,6111e37fe81d1932ae8de5e8,16,0,-1,-1,"Amount of traffic,Year building was built,Size of yard,Closeness to parks,Quality of heat/AC system,Reputation of closest school,Noise pollution,Quality of kitchen,Size of home","A Lot,1970,200 square feet,15 min away,Very Good,Bad,Moderate,Moderate,700 square feet","Very Little,1999,550 square feet,30 min away,Bad,Good,Very Low,Very Bad,1300 square feet",0,8361,2022-06-06 19:50:24,56249
5cfd4b59f7fd330016227259,ma_choice_v4_pilot4,5cfd4b59f7fd330016227259,29,0,-1,-1,"Quality of kitchen,Noise pollution,Quality of heat/AC system,Size of home,Reputation of closest school,Size of yard,Year building was built,Amount of traffic,Closeness to parks","Very Bad,Moderate,Good,600 square feet,Bad,550 square feet,2005,A Moderate Amount,30 min away","Good,Very High,Bad,800 square feet,Good,50 square feet,1973,Very Little,15 min away",0,16465,2022-06-06 19:50:27,56250
6111e37fe81d1932ae8de5e8,ma_choice_v4_pilot4,6111e37fe81d1932ae8de5e8,17,0,-1,-1,"Reputation of closest school,Quality of heat/AC system,Amount of traffic,Size of home,Closeness to parks,Year building was built,Quality of kitchen,Noise pollution,Size of yard","Bad,Very Good,Very Little,900 square feet,30 min away,2000,Moderate,Very Low,300 square feet","Very Good,Bad,A Moderate Amount,1600 square feet,20 min away,1951,Very Bad,Moderate,50 square feet",1,16800,2022-06-06 19:50:42,56251
5cfd4b59f7fd330016227259,ma_choice_v4_pilot4,5cfd4b59f7fd330016227259,30,0,-1,-1,"Closeness to parks,Quality of kitchen,Size of home,Noise pollution,Size of yard,Reputation of closest school,Amount of traffic,Year building was built,Quality of heat/AC system","20 min away,Good,1700 square feet,Very High,0 square feet,Bad,A Lot,1987,Moderate","10 min away,Very Bad,1200 square feet,Very Low,400 square feet,Good,A Little,1959,Very Bad",1,14288,2022-06-06 19:50:42,56252
6111e37fe81d1932ae8de5e8,ma_choice_v4_pilot4,6111e37fe81d1932ae8de5e8,18,0,-1,-1,"Year building was built,Size of yard,Amount of traffic,Closeness to parks,Quality of kitchen,Quality of heat/AC system,Reputation of closest school,Noise pollution,Size of home","1997,250 square feet,A Little,25 min away,Moderate,Moderate,Good,Very Low,1500 square feet","1963,500 square feet,A Lot,15 min away,Very Good,Very Bad,Very Bad,High,800 square feet",0,10156,2022-06-06 19:50:53,56253
6111e37fe81d1932ae8de5e8,ma_choice_v4_pilot4,6111e37fe81d1932ae8de5e8,19,0,-1,-1,"Year building was built,Closeness to parks,Quality of kitchen,Amount of traffic,Noise pollution,Quality of heat/AC system,Reputation of closest school,Size of home,Size of yard","1963,15 min away,Very Good,A Little,High,Moderate,Bad,700 square feet,200 square feet","1983,25 min away,Bad,A Lot,Very Low,Very Bad,Good,1000 square feet,450 square feet",0,9516,2022-06-06 19:51:03,56254
6111e37fe81d1932ae8de5e8,ma_choice_v4_pilot4,6111e37fe81d1932ae8de5e8,20,0,-1,-1,"Quality of kitchen,Size of yard,Quality of heat/AC system,Reputation of closest school,Amount of traffic,Noise pollution,Size of home,Closeness to parks,Year building was built","Very Bad,500 square feet,Bad,Very Bad,A Moderate Amount,Very High,1500 square feet,10 min away,2005","Moderate,100 square feet,Very Good,Very Good,Very Little,Moderate,700 square feet,30 min away,1982",0,7951,2022-06-06 19:51:12,56255
5cfd4b59f7fd330016227259,ma_choice_v4_pilot4,5cfd4b59f7fd330016227259,31,0,-1,-1,"Reputation of closest school,Year building was built,Quality of kitchen,Size of home,Closeness to parks,Amount of traffic,Quality of heat/AC system,Size of yard,Noise pollution","Good,1953,Very Good,1700 square feet,10 min away,A Lot,Very Good,50 square feet,Low","Bad,1977,Very Bad,1000 square feet,30 min away,A Little,Very Bad,300 square feet,High",1,34447,2022-06-06 19:51:17,56256
6111e37fe81d1932ae8de5e8,ma_choice_v4_pilot4,6111e37fe81d1932ae8de5e8,21,0,-1,-1,"Noise pollution,Amount of traffic,Quality of heat/AC system,Quality of kitchen,Size of yard,Year building was built,Closeness to parks,Reputation of closest school,Size of home","Very Low,A Lot,Good,Very Bad,350 square feet,1992,25 min away,Bad,1000 square feet","Very High,Very Little,Bad,Very Good,50 square feet,1956,10 min away,Very Good,1600 square feet",1,9780,2022-06-06 19:51:23,56257
5cfd4b59f7fd330016227259,ma_choice_v4_pilot4,5cfd4b59f7fd330016227259,32,0,-1,-1,"Noise pollution,Reputation of closest school,Closeness to parks,Quality of heat/AC system,Amount of traffic,Year building was built,Quality of kitchen,Size of home,Size of yard","Very Low,Very Good,30 min away,Bad,A Moderate Amount,1983,Very Good,600 square feet,500 square feet","Moderate,Moderate,15 min away,Good,Very Little,2017,Very Bad,900 square feet,150 square feet",0,11024,2022-06-06 19:51:29,56258
6111e37fe81d1932ae8de5e8,ma_choice_v4_pilot4,6111e37fe81d1932ae8de5e8,22,0,-1,-1,"Quality of kitchen,Noise pollution,Size of yard,Amount of traffic,Closeness to parks,Reputation of closest school,Quality of heat/AC system,Size of home,Year building was built","Very Good,Very Low,50 square feet,A Little,10 min away,Very Good,Very Good,1600 square feet,1961","Very Bad,High,350 square feet,A Lot,20 min away,Bad,Moderate,600 square feet,1989",0,7134,2022-06-06 19:51:31,56259
6111e37fe81d1932ae8de5e8,ma_choice_v4_pilot4,6111e37fe81d1932ae8de5e8,23,0,-1,-1,"Noise pollution,Size of yard,Size of home,Quality of kitchen,Amount of traffic,Quality of heat/AC system,Closeness to parks,Year building was built,Reputation of closest school","Very Low,600 square feet,600 square feet,Very Good,A Little,Very Bad,30 min away,1987,Moderate","Moderate,350 square feet,800 square feet,Moderate,A Lot,Good,15 min away,2019,Very Bad",0,8434,2022-06-06 19:51:41,56260
5cfd4b59f7fd330016227259,ma_choice_v4_pilot4,5cfd4b59f7fd330016227259,33,0,-1,-1,"Amount of traffic,Closeness to parks,Noise pollution,Size of home,Quality of kitchen,Year building was built,Reputation of closest school,Size of yard,Quality of heat/AC system","A Little,25 min away,Low,700 square feet,Bad,2010,Very Bad,150 square feet,Bad","A Lot,15 min away,Very High,1500 square feet,Very Good,1986,Good,400 square feet,Good",1,12368,2022-06-06 19:51:43,56261
6111e37fe81d1932ae8de5e8,ma_choice_v4_pilot4,6111e37fe81d1932ae8de5e8,24,0,-1,-1,"Closeness to parks,Year building was built,Noise pollution,Quality of kitchen,Size of home,Reputation of closest school,Quality of heat/AC system,Size of yard,Amount of traffic","15 min away,1968,Very Low,Very Good,1000 square feet,Moderate,Good,300 square feet,A Lot","30 min away,2019,Very High,Bad,600 square feet,Very Good,Bad,0 square feet,A Little",0,11964,2022-06-06 19:51:54,56262
5cfd4b59f7fd330016227259,ma_choice_v4_pilot4,5cfd4b59f7fd330016227259,34,0,-1,-1,"Size of yard,Closeness to parks,Year building was built,Size of home,Noise pollution,Reputation of closest school,Quality of kitchen,Amount of traffic,Quality of heat/AC system","550 square feet,20 min away,1974,1100 square feet,Very Low,Very Bad,Very Bad,A Little,Good","400 square feet,10 min away,2015,1400 square feet,Very High,Moderate,Moderate,A Lot,Bad",0,13810,2022-06-06 19:51:58,56263
61372727e083e6cd1c827f81,ma_choice_v4_pilot4,61372727e083e6cd1c827f81,0,1,-1,-1,"Noise pollution,Size of yard,Reputation of closest school,Year building was built,Size of home,Closeness to parks,Quality of heat/AC system,Quality of kitchen,Amount of traffic","High,100 square feet,Very Good,1993,1700 square feet,20 min away,Moderate,Very Good,A Little","Low,250 square feet,Moderate,1953,800 square feet,30 min away,Very Good,Bad,A Lot",0,7446,2022-06-06 19:51:59,56264
6111e37fe81d1932ae8de5e8,ma_choice_v4_pilot4,6111e37fe81d1932ae8de5e8,25,0,-1,-1,"Quality of kitchen,Amount of traffic,Size of yard,Noise pollution,Quality of heat/AC system,Closeness to parks,Reputation of closest school,Size of home,Year building was built","Moderate,A Lot,200 square feet,Low,Good,10 min away,Very Good,1800 square feet,1989","Very Good,Very Little,450 square feet,Very High,Bad,25 min away,Moderate,1400 square feet,2014",0,8377,2022-06-06 19:52:03,56265
61372727e083e6cd1c827f81,ma_choice_v4_pilot4,61372727e083e6cd1c827f81,1,1,-1,-1,"Size of home,Year building was built,Amount of traffic,Quality of heat/AC system,Reputation of closest school,Size of yard,Quality of kitchen,Noise pollution,Closeness to parks","1500 square feet,1955,Very Little,Very Good,Moderate,500 square feet,Very Good,Very Low,25 min away","1100 square feet,2006,A Lot,Moderate,Very Bad,300 square feet,Very Bad,Moderate,15 min away",0,7522,2022-06-06 19:52:07,56266
6111e37fe81d1932ae8de5e8,ma_choice_v4_pilot4,6111e37fe81d1932ae8de5e8,26,0,-1,-1,"Closeness to parks,Noise pollution,Amount of traffic,Size of home,Year building was built,Size of yard,Quality of kitchen,Reputation of closest school,Quality of heat/AC system","25 min away,High,A Little,1700 square feet,2004,200 square feet,Very Good,Good,Very Good","15 min away,Very Low,A Lot,1000 square feet,1961,600 square feet,Very Bad,Bad,Moderate",0,8256,2022-06-06 19:52:12,56267
61372727e083e6cd1c827f81,ma_choice_v4_pilot4,61372727e083e6cd1c827f81,2,1,-1,-1,"Size of home,Noise pollution,Reputation of closest school,Year building was built,Amount of traffic,Size of yard,Quality of kitchen,Closeness to parks,Quality of heat/AC system","1600 square feet,Low,Very Good,2009,Very Little,300 square feet,Very Good,30 min away,Bad","1400 square feet,Very High,Moderate,1950,A Lot,150 square feet,Moderate,15 min away,Good",1,7392,2022-06-06 19:52:16,56268
5cfd4b59f7fd330016227259,ma_choice_v4_pilot4,5cfd4b59f7fd330016227259,35,0,-1,-1,"Noise pollution,Reputation of closest school,Size of yard,Size of home,Closeness to parks,Year building was built,Quality of kitchen,Amount of traffic,Quality of heat/AC system","Very Low,Bad,300 square feet,800 square feet,15 min away,1966,Moderate,Very Little,Very Good","Moderate,Good,100 square feet,1400 square feet,30 min away,1987,Very Bad,A Lot,Moderate",0,18241,2022-06-06 19:52:17,56269
61372727e083e6cd1c827f81,ma_choice_v4_pilot4,61372727e083e6cd1c827f81,3,1,-1,-1,"Closeness to parks,Year building was built,Quality of kitchen,Size of yard,Reputation of closest school,Quality of heat/AC system,Amount of traffic,Size of home,Noise pollution","25 min away,2016,Good,150 square feet,Moderate,Moderate,A Lot,1300 square feet,Low","10 min away,1972,Very Bad,350 square feet,Very Bad,Very Good,A Little,1000 square feet,Very High",0,11537,2022-06-06 19:52:28,56270
6111e37fe81d1932ae8de5e8,ma_choice_v4_pilot4,6111e37fe81d1932ae8de5e8,27,0,-1,-1,"Reputation of closest school,Quality of heat/AC system,Amount of traffic,Year building was built,Closeness to parks,Size of yard,Size of home,Noise pollution,Quality of kitchen","Good,Very Good,A Moderate Amount,2007,30 min away,350 square feet,1100 square feet,Very High,Bad","Very Bad,Bad,Very Little,1984,15 min away,600 square feet,1500 square feet,Low,Good",0,15805,2022-06-06 19:52:29,56271
5cfd4b59f7fd330016227259,ma_choice_v4_pilot4,5cfd4b59f7fd330016227259,36,0,-1,-1,"Closeness to parks,Quality of heat/AC system,Quality of kitchen,Year building was built,Amount of traffic,Size of home,Size of yard,Noise pollution,Reputation of closest school","10 min away,Very Bad,Very Good,1984,A Lot,1300 square feet,350 square feet,Very Low,Bad","30 min away,Very Good,Moderate,1954,Very Little,700 square feet,0 square feet,Moderate,Good",0,13486,2022-06-06 19:52:31,56272
61372727e083e6cd1c827f81,ma_choice_v4_pilot4,61372727e083e6cd1c827f81,4,1,-1,-1,"Quality of kitchen,Size of home,Year building was built,Amount of traffic,Size of yard,Closeness to parks,Noise pollution,Reputation of closest school,Quality of heat/AC system","Very Bad,700 square feet,2013,A Lot,350 square feet,10 min away,High,Good,Very Good","Moderate,1200 square feet,1974,A Little,100 square feet,30 min away,Very Low,Very Bad,Very Bad",1,7541,2022-06-06 19:52:37,56273
6111e37fe81d1932ae8de5e8,ma_choice_v4_pilot4,6111e37fe81d1932ae8de5e8,28,0,-1,-1,"Size of home,Quality of kitchen,Reputation of closest school,Closeness to parks,Size of yard,Year building was built,Amount of traffic,Quality of heat/AC system,Noise pollution","1400 square feet,Bad,Good,20 min away,400 square feet,2010,A Lot,Very Good,High","700 square feet,Good,Bad,10 min away,250 square feet,1985,A Little,Moderate,Very Low",0,8822,2022-06-06 19:52:39,56274
5cfd4b59f7fd330016227259,ma_choice_v4_pilot4,5cfd4b59f7fd330016227259,37,0,-1,-1,"Quality of heat/AC system,Size of yard,Reputation of closest school,Year building was built,Amount of traffic,Noise pollution,Quality of kitchen,Closeness to parks,Size of home","Very Bad,300 square feet,Very Good,2001,Very Little,Low,Good,25 min away,900 square feet","Good,50 square feet,Moderate,1965,A Lot,High,Very Bad,10 min away,1200 square feet",0,8420,2022-06-06 19:52:41,56275
61372727e083e6cd1c827f81,ma_choice_v4_pilot4,61372727e083e6cd1c827f81,5,1,-1,-1,"Noise pollution,Size of home,Closeness to parks,Year building was built,Size of yard,Amount of traffic,Quality of kitchen,Quality of heat/AC system,Reputation of closest school","Very Low,900 square feet,10 min away,1995,350 square feet,Very Little,Good,Moderate,Very Bad","Very High,600 square feet,20 min away,1950,500 square feet,A Lot,Very Bad,Very Good,Good",0,7579,2022-06-06 19:52:45,56276
6111e37fe81d1932ae8de5e8,ma_choice_v4_pilot4,6111e37fe81d1932ae8de5e8,29,0,-1,-1,"Reputation of closest school,Year building was built,Noise pollution,Size of yard,Quality of kitchen,Quality of heat/AC system,Closeness to parks,Size of home,Amount of traffic","Very Good,2016,High,450 square feet,Very Good,Very Good,30 min away,600 square feet,A Lot","Very Bad,1954,Low,100 square feet,Moderate,Moderate,15 min away,1000 square feet,A Little",0,7858,2022-06-06 19:52:48,56277
61372727e083e6cd1c827f81,ma_choice_v4_pilot4,61372727e083e6cd1c827f81,6,1,-1,-1,"Size of home,Noise pollution,Amount of traffic,Closeness to parks,Size of yard,Quality of kitchen,Reputation of closest school,Year building was built,Quality of heat/AC system","1400 square feet,High,Very Little,10 min away,300 square feet,Bad,Very Bad,2008,Bad","1100 square feet,Low,A Lot,30 min away,600 square feet,Good,Good,1971,Good",1,7587,2022-06-06 19:52:54,56278
6111e37fe81d1932ae8de5e8,ma_choice_v4_pilot4,6111e37fe81d1932ae8de5e8,30,0,-1,-1,"Year building was built,Quality of heat/AC system,Reputation of closest school,Size of home,Size of yard,Quality of kitchen,Noise pollution,Amount of traffic,Closeness to parks","1986,Very Bad,Bad,1800 square feet,450 square feet,Moderate,High,A Lot,30 min away","1961,Good,Good,600 square feet,150 square feet,Very Good,Very Low,Very Little,20 min away",1,8293,2022-06-06 19:52:57,56279
5cfd4b59f7fd330016227259,ma_choice_v4_pilot4,5cfd4b59f7fd330016227259,38,0,-1,-1,"Noise pollution,Year building was built,Size of home,Closeness to parks,Quality of kitchen,Size of yard,Reputation of closest school,Quality of heat/AC system,Amount of traffic","Moderate,1997,1500 square feet,20 min away,Bad,400 square feet,Bad,Moderate,A Lot","Very High,1953,900 square feet,10 min away,Very Good,200 square feet,Good,Very Bad,A Little",0,19665,2022-06-06 19:53:01,56280
61372727e083e6cd1c827f81,ma_choice_v4_pilot4,61372727e083e6cd1c827f81,7,1,-1,-1,"Quality of heat/AC system,Year building was built,Closeness to parks,Amount of traffic,Reputation of closest school,Quality of kitchen,Size of home,Noise pollution,Size of yard","Moderate,2005,20 min away,Very Little,Moderate,Very Bad,1800 square feet,Very Low,450 square feet","Very Bad,1970,30 min away,A Lot,Very Good,Moderate,1400 square feet,Moderate,150 square feet",1,7579,2022-06-06 19:53:03,56281
6111e37fe81d1932ae8de5e8,ma_choice_v4_pilot4,6111e37fe81d1932ae8de5e8,31,0,-1,-1,"Closeness to parks,Quality of heat/AC system,Amount of traffic,Quality of kitchen,Year building was built,Size of yard,Size of home,Noise pollution,Reputation of closest school","10 min away,Bad,A Lot,Moderate,2015,400 square feet,1400 square feet,Very High,Moderate","20 min away,Good,A Little,Very Bad,1974,550 square feet,1100 square feet,Very Low,Very Bad",0,9852,2022-06-06 19:53:08,56282
61372727e083e6cd1c827f81,ma_choice_v4_pilot4,61372727e083e6cd1c827f81,8,1,-1,-1,"Reputation of closest school,Noise pollution,Size of yard,Year building was built,Amount of traffic,Closeness to parks,Quality of heat/AC system,Quality of kitchen,Size of home","Good,Very Low,450 square feet,1974,A Lot,20 min away,Very Bad,Moderate,1100 square feet","Very Bad,Very High,200 square feet,2020,A Little,30 min away,Good,Very Bad,1500 square feet",0,7617,2022-06-06 19:53:11,56283
5cfd4b59f7fd330016227259,ma_choice_v4_pilot4,5cfd4b59f7fd330016227259,39,0,-1,-1,"Size of home,Year building was built,Closeness to parks,Quality of heat/AC system,Size of yard,Amount of traffic,Quality of kitchen,Reputation of closest school,Noise pollution","900 square feet,1988,10 min away,Bad,300 square feet,A Little,Moderate,Very Bad,Low","1700 square feet,1950,25 min away,Very Good,100 square feet,A Lot,Very Bad,Moderate,High",0,10015,2022-06-06 19:53:12,56284
6111e37fe81d1932ae8de5e8,ma_choice_v4_pilot4,6111e37fe81d1932ae8de5e8,32,0,-1,-1,"Year building was built,Amount of traffic,Quality of heat/AC system,Quality of kitchen,Noise pollution,Reputation of closest school,Closeness to parks,Size of home,Size of yard","1986,A Lot,Very Good,Very Good,Very Low,Very Good,30 min away,600 square feet,50 square feet","1965,A Little,Very Bad,Moderate,Very High,Moderate,15 min away,1800 square feet,400 square feet",0,8378,2022-06-06 19:53:17,56285
61372727e083e6cd1c827f81,ma_choice_v4_pilot4,61372727e083e6cd1c827f81,9,1,-1,-1,"Size of home,Amount of traffic,Quality of heat/AC system,Size of yard,Noise pollution,Quality of kitchen,Year building was built,Reputation of closest school,Closeness to parks","1300 square feet,Very Little,Very Bad,50 square feet,High,Bad,2012,Bad,15 min away","1100 square feet,A Moderate Amount,Very Good,400 square feet,Very Low,Good,1973,Good,25 min away",1,7521,2022-06-06 19:53:20,56286
5cfd4b59f7fd330016227259,ma_choice_v4_pilot4,5cfd4b59f7fd330016227259,40,0,-1,-1,"Noise pollution,Year building was built,Reputation of closest school,Quality of kitchen,Amount of traffic,Closeness to parks,Quality of heat/AC system,Size of yard,Size of home","Very Low,1961,Very Good,Very Good,A Little,10 min away,Very Good,50 square feet,1600 square feet","High,1989,Bad,Very Bad,A Lot,20 min away,Moderate,350 square feet,600 square feet",0,17966,2022-06-06 19:53:31,56287
6111e37fe81d1932ae8de5e8,ma_choice_v4_pilot4,6111e37fe81d1932ae8de5e8,33,0,-1,-1,"Size of yard,Size of home,Year building was built,Closeness to parks,Amount of traffic,Quality of kitchen,Quality of heat/AC system,Noise pollution,Reputation of closest school","100 square feet,1100 square feet,2006,30 min away,A Lot,Good,Very Bad,Low,Very Good","550 square feet,1400 square feet,1957,10 min away,A Little,Very Bad,Very Good,Very High,Moderate",1,15625,2022-06-06 19:53:34,56288
6111e37fe81d1932ae8de5e8,ma_choice_v4_pilot4,6111e37fe81d1932ae8de5e8,34,0,-1,-1,"Size of yard,Quality of heat/AC system,Reputation of closest school,Quality of kitchen,Amount of traffic,Closeness to parks,Size of home,Year building was built,Noise pollution","200 square feet,Good,Bad,Very Good,A Lot,20 min away,1600 square feet,1964,Very High","350 square feet,Bad,Good,Very Bad,A Little,30 min away,1200 square feet,2000,Low",0,7450,2022-06-06 19:53:42,56289
5cfd4b59f7fd330016227259,ma_choice_v4_pilot4,5cfd4b59f7fd330016227259,41,0,-1,-1,"Year building was built,Reputation of closest school,Closeness to parks,Quality of kitchen,Amount of traffic,Size of home,Size of yard,Quality of heat/AC system,Noise pollution","2003,Very Good,15 min away,Good,A Little,700 square feet,0 square feet,Very Bad,Very High","1983,Bad,25 min away,Very Bad,A Lot,1800 square feet,300 square feet,Moderate,Moderate",1,17550,2022-06-06 19:53:50,56290
6111e37fe81d1932ae8de5e8,ma_choice_v4_pilot4,6111e37fe81d1932ae8de5e8,35,0,-1,-1,"Quality of kitchen,Amount of traffic,Quality of heat/AC system,Noise pollution,Year building was built,Size of home,Closeness to parks,Size of yard,Reputation of closest school","Very Bad,A Moderate Amount,Good,Moderate,2005,600 square feet,30 min away,550 square feet,Bad","Good,Very Little,Bad,Very High,1973,800 square feet,15 min away,50 square feet,Good",1,7879,2022-06-06 19:53:51,56291
6111e37fe81d1932ae8de5e8,ma_choice_v4_pilot4,6111e37fe81d1932ae8de5e8,36,0,-1,-1,"Quality of heat/AC system,Year building was built,Size of yard,Reputation of closest school,Noise pollution,Amount of traffic,Size of home,Closeness to parks,Quality of kitchen","Very Good,1989,300 square feet,Good,Moderate,A Moderate Amount,1700 square feet,10 min away,Very Good","Moderate,1951,100 square feet,Bad,Very Low,Very Little,1100 square feet,20 min away,Very Bad",0,9249,2022-06-06 19:54:02,56292
5cfd4b59f7fd330016227259,ma_choice_v4_pilot4,5cfd4b59f7fd330016227259,42,0,-1,-1,"Size of yard,Quality of heat/AC system,Reputation of closest school,Closeness to parks,Year building was built,Size of home,Quality of kitchen,Amount of traffic,Noise pollution","150 square feet,Moderate,Very Bad,15 min away,1969,700 square feet,Good,Very Little,High","400 square feet,Very Bad,Good,25 min away,2010,1000 square feet,Very Bad,A Lot,Low",1,14951,2022-06-06 19:54:06,56293
6111e37fe81d1932ae8de5e8,ma_choice_v4_pilot4,6111e37fe81d1932ae8de5e8,37,0,-1,-1,"Size of home,Amount of traffic,Quality of heat/AC system,Year building was built,Size of yard,Noise pollution,Reputation of closest school,Closeness to parks,Quality of kitchen","1300 square feet,Very Little,Very Bad,2012,550 square feet,High,Bad,30 min away,Bad","1000 square feet,A Lot,Moderate,1987,100 square feet,Low,Good,10 min away,Very Good",1,11173,2022-06-06 19:54:14,56294
5cfd4b59f7fd330016227259,ma_choice_v4_pilot4,5cfd4b59f7fd330016227259,43,0,-1,-1,"Quality of kitchen,Amount of traffic,Closeness to parks,Size of home,Quality of heat/AC system,Year building was built,Size of yard,Noise pollution,Reputation of closest school","Very Good,A Little,20 min away,1700 square feet,Very Bad,1980,150 square feet,Moderate,Good","Very Bad,A Lot,10 min away,1200 square feet,Good,1951,350 square feet,Very Low,Bad",1,16892,2022-06-06 19:54:24,56295
6111e37fe81d1932ae8de5e8,ma_choice_v4_pilot4,6111e37fe81d1932ae8de5e8,38,0,-1,-1,"Quality of kitchen,Year building was built,Noise pollution,Size of yard,Amount of traffic,Reputation of closest school,Quality of heat/AC system,Closeness to parks,Size of home","Very Good,1979,Very Low,50 square feet,A Moderate Amount,Bad,Very Bad,25 min away,1200 square feet","Bad,1950,High,450 square feet,Very Little,Good,Good,10 min away,700 square feet",1,17918,2022-06-06 19:54:33,56296
5cfd4b59f7fd330016227259,ma_choice_v4_pilot4,5cfd4b59f7fd330016227259,44,0,-1,-1,"Closeness to parks,Size of yard,Size of home,Quality of heat/AC system,Quality of kitchen,Noise pollution,Year building was built,Reputation of closest school,Amount of traffic","30 min away,600 square feet,600 square feet,Very Bad,Very Good,Very Low,1987,Moderate,A Little","15 min away,350 square feet,800 square feet,Good,Moderate,Moderate,2019,Very Bad,A Lot",0,11709,2022-06-06 19:54:37,56297
61372727e083e6cd1c827f81,ma_choice_v4_pilot4,61372727e083e6cd1c827f81,0,0,-1,-1,"Size of yard,Year building was built,Closeness to parks,Noise pollution,Quality of kitchen,Quality of heat/AC system,Reputation of closest school,Amount of traffic,Size of home","600 square feet,2000,20 min away,High,Bad,Moderate,Bad,A Moderate Amount,1200 square feet","350 square feet,1971,10 min away,Very Low,Very Good,Very Bad,Good,Very Little,700 square feet",1,7488,2022-06-06 19:54:42,56298
6111e37fe81d1932ae8de5e8,ma_choice_v4_pilot4,6111e37fe81d1932ae8de5e8,39,0,-1,-1,"Amount of traffic,Quality of heat/AC system,Size of home,Closeness to parks,Reputation of closest school,Year building was built,Quality of kitchen,Size of yard,Noise pollution","A Lot,Bad,1100 square feet,25 min away,Moderate,2007,Good,50 square feet,Moderate","Very Little,Good,700 square feet,15 min away,Very Bad,1985,Very Bad,550 square feet,Very Low",0,11879,2022-06-06 19:54:46,56299
61372727e083e6cd1c827f81,ma_choice_v4_pilot4,61372727e083e6cd1c827f81,1,0,-1,-1,"Size of yard,Size of home,Year building was built,Quality of heat/AC system,Closeness to parks,Quality of kitchen,Noise pollution,Reputation of closest school,Amount of traffic","450 square feet,1500 square feet,1964,Very Bad,30 min away,Very Bad,Very High,Bad,A Lot","50 square feet,1200 square feet,2009,Very Good,15 min away,Very Good,Moderate,Very Good,A Little",1,7539,2022-06-06 19:54:50,56300
5cfd4b59f7fd330016227259,ma_choice_v4_pilot4,5cfd4b59f7fd330016227259,45,0,-1,-1,"Noise pollution,Reputation of closest school,Closeness to parks,Quality of heat/AC system,Year building was built,Amount of traffic,Size of yard,Size of home,Quality of kitchen","Moderate,Moderate,25 min away,Bad,2007,A Lot,50 square feet,1100 square feet,Good","Very Low,Very Bad,15 min away,Good,1985,Very Little,550 square feet,700 square feet,Very Bad",1,15167,2022-06-06 19:54:53,56301
6111e37fe81d1932ae8de5e8,ma_choice_v4_pilot4,6111e37fe81d1932ae8de5e8,40,0,-1,-1,"Quality of kitchen,Reputation of closest school,Amount of traffic,Year building was built,Size of yard,Noise pollution,Quality of heat/AC system,Closeness to parks,Size of home","Very Bad,Very Good,A Little,1984,550 square feet,Low,Very Good,15 min away,900 square feet","Moderate,Bad,A Lot,1953,50 square feet,High,Bad,25 min away,1300 square feet",0,12955,2022-06-06 19:55:00,56302
61372727e083e6cd1c827f81,ma_choice_v4_pilot4,61372727e083e6cd1c827f81,2,0,-1,-1,"Closeness to parks,Noise pollution,Quality of kitchen,Quality of heat/AC system,Size of home,Year building was built,Amount of traffic,Size of yard,Reputation of closest school","20 min away,Very Low,Very Bad,Good,1000 square feet,2004,Very Little,250 square feet,Good","30 min away,Very High,Good,Bad,1700 square feet,1959,A Moderate Amount,450 square feet,Bad",1,9252,2022-06-06 19:55:00,56303
5cfd4b59f7fd330016227259,ma_choice_v4_pilot4,5cfd4b59f7fd330016227259,46,0,-1,-1,"Quality of kitchen,Year building was built,Reputation of closest school,Size of yard,Closeness to parks,Quality of heat/AC system,Amount of traffic,Noise pollution,Size of home","Moderate,1954,Very Bad,100 square feet,15 min away,Moderate,A Little,Low,1000 square feet","Very Good,2016,Very Good,450 square feet,30 min away,Very Good,A Lot,High,600 square feet",0,12209,2022-06-06 19:55:06,56304
61372727e083e6cd1c827f81,ma_choice_v4_pilot4,61372727e083e6cd1c827f81,3,0,-1,-1,"Quality of kitchen,Size of yard,Quality of heat/AC system,Noise pollution,Reputation of closest school,Closeness to parks,Year building was built,Amount of traffic,Size of home","Very Good,150 square feet,Good,Very Low,Good,20 min away,1961,Very Little,600 square feet","Moderate,450 square feet,Very Bad,High,Bad,30 min away,1986,A Lot,1800 square feet",0,7507,2022-06-06 19:55:09,56305
6111e37fe81d1932ae8de5e8,ma_choice_v4_pilot4,6111e37fe81d1932ae8de5e8,41,0,-1,-1,"Year building was built,Size of yard,Size of home,Closeness to parks,Quality of heat/AC system,Reputation of closest school,Noise pollution,Quality of kitchen,Amount of traffic","1969,150 square feet,700 square feet,15 min away,Moderate,Very Bad,High,Good,Very Little","2010,400 square feet,1000 square feet,25 min away,Very Bad,Good,Low,Very Bad,A Lot",0,13174,2022-06-06 19:55:14,56306
61372727e083e6cd1c827f81,ma_choice_v4_pilot4,61372727e083e6cd1c827f81,4,0,-1,-1,"Amount of traffic,Size of yard,Quality of kitchen,Closeness to parks,Quality of heat/AC system,Reputation of closest school,Year building was built,Size of home,Noise pollution","A Lot,300 square feet,Moderate,25 min away,Moderate,Bad,2010,1600 square feet,Very High","A Little,100 square feet,Very Bad,10 min away,Very Bad,Very Good,1990,1000 square feet,Moderate",0,10227,2022-06-06 19:55:20,56307
61372727e083e6cd1c827f81,ma_choice_v4_pilot4,61372727e083e6cd1c827f81,5,0,-1,-1,"Year building was built,Quality of kitchen,Noise pollution,Closeness to parks,Size of yard,Reputation of closest school,Quality of heat/AC system,Amount of traffic,Size of home","2017,Very Bad,Moderate,15 min away,150 square feet,Moderate,Good,Very Little,900 square feet","1983,Very Good,Very Low,30 min away,500 square feet,Very Good,Bad,A Moderate Amount,600 square feet",1,9179,2022-06-06 19:55:30,56308
6111e37fe81d1932ae8de5e8,ma_choice_v4_pilot4,6111e37fe81d1932ae8de5e8,42,0,-1,-1,"Quality of heat/AC system,Year building was built,Size of home,Size of yard,Quality of kitchen,Noise pollution,Reputation of closest school,Amount of traffic,Closeness to parks","Very Bad,2016,1100 square feet,400 square feet,Very Good,Moderate,Bad,A Little,10 min away","Good,1974,1500 square feet,150 square feet,Very Bad,Very High,Very Good,A Lot,25 min away",1,19454,2022-06-06 19:55:34,56309
5cfd4b59f7fd330016227259,ma_choice_v4_pilot4,5cfd4b59f7fd330016227259,47,0,-1,-1,"Year building was built,Size of home,Quality of heat/AC system,Noise pollution,Amount of traffic,Reputation of closest school,Closeness to parks,Quality of kitchen,Size of yard","1950,1700 square feet,Bad,Very High,A Lot,Very Bad,15 min away,Bad,400 square feet","1970,1000 square feet,Very Good,Moderate,A Little,Moderate,25 min away,Good,200 square feet",1,28663,2022-06-06 19:55:36,56310
61372727e083e6cd1c827f81,ma_choice_v4_pilot4,61372727e083e6cd1c827f81,6,0,-1,-1,"Reputation of closest school,Size of yard,Year building was built,Quality of kitchen,Noise pollution,Amount of traffic,Size of home,Closeness to parks,Quality of heat/AC system","Very Good,250 square feet,1957,Very Good,High,A Little,700 square feet,25 min away,Very Good","Bad,450 square feet,1981,Bad,Low,A Lot,1700 square feet,10 min away,Moderate",0,8107,2022-06-06 19:55:40,56311
6111e37fe81d1932ae8de5e8,ma_choice_v4_pilot4,6111e37fe81d1932ae8de5e8,43,0,-1,-1,"Noise pollution,Quality of kitchen,Amount of traffic,Closeness to parks,Size of home,Year building was built,Reputation of closest school,Quality of heat/AC system,Size of yard","Very High,Good,A Little,15 min away,700 square feet,2003,Very Good,Very Bad,0 square feet","Moderate,Very Bad,A Lot,25 min away,1800 square feet,1983,Bad,Moderate,300 square feet",0,10516,2022-06-06 19:55:46,56312
61372727e083e6cd1c827f81,ma_choice_v4_pilot4,61372727e083e6cd1c827f81,7,0,-1,-1,"Noise pollution,Amount of traffic,Quality of kitchen,Size of yard,Quality of heat/AC system,Size of home,Reputation of closest school,Year building was built,Closeness to parks","High,Very Little,Moderate,600 square feet,Good,600 square feet,Moderate,1968,15 min away","Low,A Lot,Very Bad,0 square feet,Bad,1100 square feet,Very Bad,2013,25 min away",0,8667,2022-06-06 19:55:49,56313
5cfd4b59f7fd330016227259,ma_choice_v4_pilot4,5cfd4b59f7fd330016227259,48,0,-1,-1,"Size of yard,Quality of heat/AC system,Quality of kitchen,Amount of traffic,Year building was built,Size of home,Noise pollution,Closeness to parks,Reputation of closest school","0 square feet,Bad,Bad,A Little,2019,600 square feet,Very High,30 min away,Very Good","300 square feet,Good,Very Good,A Lot,1968,1000 square feet,Very Low,15 min away,Moderate",1,15657,2022-06-06 19:55:52,56314
61372727e083e6cd1c827f81,ma_choice_v4_pilot4,61372727e083e6cd1c827f81,8,0,-1,-1,"Noise pollution,Quality of kitchen,Reputation of closest school,Quality of heat/AC system,Size of yard,Amount of traffic,Year building was built,Size of home,Closeness to parks","Very Low,Very Good,Moderate,Bad,300 square feet,A Lot,1957,1300 square feet,20 min away","Very High,Bad,Very Bad,Good,100 square feet,Very Little,1993,1500 square feet,30 min away",0,7580,2022-06-06 19:55:58,56315
6111e37fe81d1932ae8de5e8,ma_choice_v4_pilot4,6111e37fe81d1932ae8de5e8,44,0,-1,-1,"Amount of traffic,Noise pollution,Quality of heat/AC system,Quality of kitchen,Size of yard,Size of home,Year building was built,Reputation of closest school,Closeness to parks","A Moderate Amount,Very Low,Very Good,Good,600 square feet,1800 square feet,2003,Bad,10 min away","Very Little,High,Moderate,Bad,150 square feet,900 square feet,1961,Very Good,25 min away",1,13024,2022-06-06 19:56:00,56316
61372727e083e6cd1c827f81,ma_choice_v4_pilot4,61372727e083e6cd1c827f81,9,0,-1,-1,"Year building was built,Reputation of closest school,Size of home,Closeness to parks,Noise pollution,Amount of traffic,Size of yard,Quality of kitchen,Quality of heat/AC system","2013,Bad,1500 square feet,10 min away,Very High,A Little,200 square feet,Very Bad,Bad","1984,Very Good,700 square feet,20 min away,Very Low,A Lot,450 square feet,Moderate,Good",1,7525,2022-06-06 19:56:06,56317
6111e37fe81d1932ae8de5e8,ma_choice_v4_pilot4,6111e37fe81d1932ae8de5e8,45,0,-1,-1,"Noise pollution,Reputation of closest school,Quality of kitchen,Quality of heat/AC system,Size of home,Closeness to parks,Amount of traffic,Year building was built,Size of yard","Moderate,Very Good,Very Bad,Very Bad,1000 square feet,10 min away,A Little,1990,100 square feet","Very High,Bad,Moderate,Moderate,1600 square feet,25 min away,A Lot,2010,300 square feet",1,7454,2022-06-06 19:56:08,56318
61372727e083e6cd1c827f81,ma_choice_v4_pilot4,61372727e083e6cd1c827f81,10,0,-1,-1,"Size of home,Quality of kitchen,Amount of traffic,Year building was built,Quality of heat/AC system,Closeness to parks,Noise pollution,Reputation of closest school,Size of yard","1800 square feet,Good,A Moderate Amount,2003,Very Good,10 min away,Very Low,Bad,600 square feet","900 square feet,Bad,Very Little,1961,Moderate,25 min away,High,Very Good,150 square feet",0,7555,2022-06-06 19:56:15,56319
5cfd4b59f7fd330016227259,ma_choice_v4_pilot4,5cfd4b59f7fd330016227259,49,0,-1,-1,"Size of home,Closeness to parks,Year building was built,Reputation of closest school,Size of yard,Quality of heat/AC system,Amount of traffic,Noise pollution,Quality of kitchen","1800 square feet,10 min away,1989,Very Good,200 square feet,Good,A Lot,Low,Moderate","1400 square feet,25 min away,2014,Moderate,450 square feet,Bad,Very Little,Very High,Very Good",1,22881,2022-06-06 19:56:16,56320
61372727e083e6cd1c827f81,ma_choice_v4_pilot4,61372727e083e6cd1c827f81,11,0,-1,-1,"Amount of traffic,Size of yard,Quality of kitchen,Quality of heat/AC system,Closeness to parks,Reputation of closest school,Year building was built,Size of home,Noise pollution","A Lot,100 square feet,Very Good,Moderate,10 min away,Good,1987,1000 square feet,Low","Very Little,550 square feet,Bad,Very Bad,30 min away,Bad,2012,1300 square feet,High",0,7596,2022-06-06 19:56:23,56321
5cfd4b59f7fd330016227259,ma_choice_v4_pilot4,5cfd4b59f7fd330016227259,50,0,-1,-1,"Noise pollution,Quality of kitchen,Quality of heat/AC system,Reputation of closest school,Size of yard,Year building was built,Size of home,Closeness to parks,Amount of traffic","High,Very Good,Very Bad,Bad,100 square feet,1950,900 square feet,20 min away,A Little","Low,Moderate,Very Good,Very Good,400 square feet,1971,1300 square feet,30 min away,A Lot",1,11686,2022-06-06 19:56:29,56322
6111e37fe81d1932ae8de5e8,ma_choice_v4_pilot4,6111e37fe81d1932ae8de5e8,46,0,-1,-1,"Size of home,Noise pollution,Quality of heat/AC system,Size of yard,Quality of kitchen,Closeness to parks,Amount of traffic,Year building was built,Reputation of closest school","1700 square feet,Very High,Moderate,0 square feet,Good,20 min away,A Lot,1987,Bad","1200 square feet,Very Low,Very Bad,400 square feet,Very Bad,10 min away,A Little,1959,Good",1,22226,2022-06-06 19:56:31,56323
61372727e083e6cd1c827f81,ma_choice_v4_pilot4,61372727e083e6cd1c827f81,12,0,-1,-1,"Quality of kitchen,Noise pollution,Reputation of closest school,Size of home,Quality of heat/AC system,Amount of traffic,Size of yard,Year building was built,Closeness to parks","Very Good,Moderate,Good,1700 square feet,Very Bad,A Little,150 square feet,1980,20 min away","Very Bad,Very Low,Bad,1200 square feet,Good,A Lot,350 square feet,1951,10 min away",0,7652,2022-06-06 19:56:32,56324
5cfd4b59f7fd330016227259,ma_choice_v4_pilot4,5cfd4b59f7fd330016227259,51,0,-1,-1,"Closeness to parks,Quality of heat/AC system,Noise pollution,Year building was built,Size of yard,Quality of kitchen,Reputation of closest school,Size of home,Amount of traffic","15 min away,Very Bad,Very Low,2017,250 square feet,Very Bad,Good,900 square feet,A Little","30 min away,Good,Very High,1997,100 square feet,Good,Bad,600 square feet,A Lot",0,9298,2022-06-06 19:56:39,56325
61372727e083e6cd1c827f81,ma_choice_v4_pilot4,61372727e083e6cd1c827f81,13,0,-1,-1,"Amount of traffic,Noise pollution,Year building was built,Size of home,Closeness to parks,Quality of kitchen,Size of yard,Quality of heat/AC system,Reputation of closest school","A Little,Very Low,1987,1100 square feet,30 min away,Very Good,350 square feet,Very Bad,Very Good","A Lot,High,1956,600 square feet,15 min away,Very Bad,150 square feet,Very Good,Very Bad",0,7690,2022-06-06 19:56:41,56326
6111e37fe81d1932ae8de5e8,ma_choice_v4_pilot4,6111e37fe81d1932ae8de5e8,47,0,-1,-1,"Noise pollution,Amount of traffic,Quality of kitchen,Reputation of closest school,Size of yard,Quality of heat/AC system,Year building was built,Closeness to parks,Size of home","High,Very Little,Moderate,Bad,50 square feet,Moderate,2018,30 min away,1200 square feet","Very Low,A Moderate Amount,Very Bad,Good,550 square feet,Very Bad,1994,15 min away,1700 square feet",0,16561,2022-06-06 19:56:49,56327
61372727e083e6cd1c827f81,ma_choice_v4_pilot4,61372727e083e6cd1c827f81,14,0,-1,-1,"Noise pollution,Closeness to parks,Size of yard,Quality of kitchen,Reputation of closest school,Size of home,Year building was built,Amount of traffic,Quality of heat/AC system","High,30 min away,50 square feet,Very Good,Good,900 square feet,1981,A Lot,Good","Low,20 min away,450 square feet,Very Bad,Very Bad,1300 square feet,2019,A Little,Bad",0,7668,2022-06-06 19:56:49,56328
5cfd4b59f7fd330016227259,ma_choice_v4_pilot4,5cfd4b59f7fd330016227259,52,0,-1,-1,"Size of yard,Quality of kitchen,Quality of heat/AC system,Reputation of closest school,Amount of traffic,Noise pollution,Year building was built,Size of home,Closeness to parks","50 square feet,Very Bad,Very Bad,Moderate,A Little,Low,1969,1400 square feet,25 min away","250 square feet,Moderate,Moderate,Very Bad,A Lot,Very High,1990,600 square feet,15 min away",0,15897,2022-06-06 19:56:56,56329
61372727e083e6cd1c827f81,ma_choice_v4_pilot4,61372727e083e6cd1c827f81,15,0,-1,-1,"Quality of heat/AC system,Year building was built,Amount of traffic,Size of yard,Closeness to parks,Reputation of closest school,Noise pollution,Quality of kitchen,Size of home","Bad,1999,Very Little,550 square feet,30 min away,Good,Very Low,Very Bad,1300 square feet","Very Good,1970,A Lot,200 square feet,15 min away,Bad,Moderate,Moderate,700 square feet",1,7723,2022-06-06 19:56:58,56330
6111e37fe81d1932ae8de5e8,ma_choice_v4_pilot4,6111e37fe81d1932ae8de5e8,48,0,-1,-1,"Size of yard,Closeness to parks,Amount of traffic,Quality of heat/AC system,Noise pollution,Quality of kitchen,Year building was built,Reputation of closest school,Size of home","250 square feet,15 min away,A Little,Very Bad,Very Low,Very Bad,2017,Good,900 square feet","100 square feet,30 min away,A Lot,Good,Very High,Good,1997,Bad,600 square feet",1,8626,2022-06-06 19:56:59,56331
61372727e083e6cd1c827f81,ma_choice_v4_pilot4,61372727e083e6cd1c827f81,16,0,-1,-1,"Noise pollution,Reputation of closest school,Quality of heat/AC system,Closeness to parks,Quality of kitchen,Year building was built,Size of yard,Size of home,Amount of traffic","Moderate,Bad,Bad,20 min away,Very Bad,2010,300 square feet,1700 square feet,A Moderate Amount","Very High,Very Good,Good,30 min away,Very Good,1970,550 square feet,900 square feet,Very Little",1,7483,2022-06-06 19:57:07,56332
6111e37fe81d1932ae8de5e8,ma_choice_v4_pilot4,6111e37fe81d1932ae8de5e8,49,0,-1,-1,"Quality of heat/AC system,Quality of kitchen,Reputation of closest school,Size of yard,Closeness to parks,Size of home,Year building was built,Amount of traffic,Noise pollution","Very Bad,Moderate,Moderate,200 square feet,15 min away,1300 square feet,1991,A Lot,Low","Very Good,Very Bad,Very Bad,500 square feet,25 min away,1000 square feet,2015,A Little,Very High",0,10080,2022-06-06 19:57:10,56333
61372727e083e6cd1c827f81,ma_choice_v4_pilot4,61372727e083e6cd1c827f81,17,0,-1,-1,"Quality of kitchen,Closeness to parks,Amount of traffic,Quality of heat/AC system,Noise pollution,Size of yard,Reputation of closest school,Year building was built,Size of home","Moderate,30 min away,Very Little,Moderate,High,50 square feet,Bad,2018,1200 square feet","Very Bad,15 min away,A Moderate Amount,Very Bad,Very Low,550 square feet,Good,1994,1700 square feet",0,7699,2022-06-06 19:57:15,56334
6111e37fe81d1932ae8de5e8,ma_choice_v4_pilot4,6111e37fe81d1932ae8de5e8,50,0,-1,-1,"Size of home,Noise pollution,Year building was built,Quality of kitchen,Closeness to parks,Amount of traffic,Reputation of closest school,Size of yard,Quality of heat/AC system","1400 square feet,Low,2014,Bad,30 min away,A Little,Moderate,450 square feet,Good","1100 square feet,High,1957,Very Good,10 min away,A Lot,Very Good,50 square feet,Very Bad",0,8328,2022-06-06 19:57:19,56335
5cfd4b59f7fd330016227259,ma_choice_v4_pilot4,5cfd4b59f7fd330016227259,53,0,-1,-1,"Size of home,Noise pollution,Size of yard,Closeness to parks,Year building was built,Quality of kitchen,Quality of heat/AC system,Amount of traffic,Reputation of closest school","1600 square feet,Moderate,550 square feet,15 min away,1978,Bad,Very Good,A Moderate Amount,Very Good","1000 square feet,Very Low,50 square feet,25 min away,2011,Good,Bad,Very Little,Very Bad",0,22419,2022-06-06 19:57:19,56336
61372727e083e6cd1c827f81,ma_choice_v4_pilot4,61372727e083e6cd1c827f81,18,0,-1,-1,"Year building was built,Size of yard,Reputation of closest school,Amount of traffic,Size of home,Noise pollution,Closeness to parks,Quality of heat/AC system,Quality of kitchen","1986,400 square feet,Good,A Lot,1500 square feet,Very High,15 min away,Good,Very Good","2010,150 square feet,Very Bad,A Little,700 square feet,Low,25 min away,Bad,Bad",0,7436,2022-06-06 19:57:24,56337
61372727e083e6cd1c827f81,ma_choice_v4_pilot4,61372727e083e6cd1c827f81,19,0,-1,-1,"Reputation of closest school,Closeness to parks,Quality of kitchen,Year building was built,Amount of traffic,Size of yard,Noise pollution,Size of home,Quality of heat/AC system","Moderate,10 min away,Very Bad,1965,A Lot,50 square feet,High,1200 square feet,Good","Very Good,25 min away,Good,2001,Very Little,300 square feet,Low,900 square feet,Very Bad",1,8355,2022-06-06 19:57:33,56338
61372727e083e6cd1c827f81,ma_choice_v4_pilot4,61372727e083e6cd1c827f81,20,0,-1,-1,"Quality of kitchen,Reputation of closest school,Amount of traffic,Noise pollution,Closeness to parks,Size of yard,Year building was built,Size of home,Quality of heat/AC system","Good,Good,A Moderate Amount,Low,15 min away,150 square feet,1959,1100 square feet,Bad","Bad,Very Bad,Very Little,High,25 min away,450 square feet,2006,1400 square feet,Very Good",0,7755,2022-06-06 19:57:42,56339
5cfd4b59f7fd330016227259,ma_choice_v4_pilot4,5cfd4b59f7fd330016227259,54,0,-1,-1,"Size of yard,Noise pollution,Reputation of closest school,Quality of heat/AC system,Quality of kitchen,Year building was built,Amount of traffic,Closeness to parks,Size of home","500 square feet,High,Very Bad,Bad,Very Good,1986,A Moderate Amount,10 min away,1800 square feet","100 square feet,Low,Good,Very Good,Very Bad,1950,Very Little,25 min away,800 square feet",1,25345,2022-06-06 19:57:46,56340
6111e37fe81d1932ae8de5e8,ma_choice_v4_pilot4,6111e37fe81d1932ae8de5e8,51,0,-1,-1,"Year building was built,Amount of traffic,Noise pollution,Closeness to parks,Quality of kitchen,Reputation of closest school,Size of home,Quality of heat/AC system,Size of yard","2015,A Little,Moderate,30 min away,Moderate,Very Good,1100 square feet,Good,100 square feet","1962,A Lot,Very High,10 min away,Very Good,Bad,1400 square feet,Bad,550 square feet",0,29386,2022-06-06 19:57:50,56341
61372727e083e6cd1c827f81,ma_choice_v4_pilot4,61372727e083e6cd1c827f81,21,0,-1,-1,"Reputation of closest school,Closeness to parks,Quality of kitchen,Size of home,Noise pollution,Amount of traffic,Size of yard,Year building was built,Quality of heat/AC system","Very Good,20 min away,Very Bad,1500 square feet,High,A Moderate Amount,550 square feet,1974,Bad","Moderate,10 min away,Good,700 square feet,Very Low,Very Little,200 square feet,2016,Very Good",1,8172,2022-06-06 19:57:51,56342
6111e37fe81d1932ae8de5e8,ma_choice_v4_pilot4,6111e37fe81d1932ae8de5e8,52,0,-1,-1,"Size of yard,Reputation of closest school,Size of home,Quality of kitchen,Closeness to parks,Quality of heat/AC system,Noise pollution,Year building was built,Amount of traffic","150 square feet,Very Bad,1600 square feet,Very Bad,10 min away,Moderate,Low,1956,A Moderate Amount","600 square feet,Good,1100 square feet,Moderate,25 min away,Very Bad,Very High,1990,Very Little",1,7559,2022-06-06 19:57:58,56343
61372727e083e6cd1c827f81,ma_choice_v4_pilot4,61372727e083e6cd1c827f81,22,0,-1,-1,"Size of yard,Closeness to parks,Reputation of closest school,Noise pollution,Quality of kitchen,Year building was built,Quality of heat/AC system,Amount of traffic,Size of home","500 square feet,20 min away,Moderate,High,Bad,2013,Very Good,Very Little,1600 square feet","350 square feet,10 min away,Very Good,Low,Very Good,1954,Bad,A Moderate Amount,1300 square feet",1,7475,2022-06-06 19:58:00,56344
5cfd4b59f7fd330016227259,ma_choice_v4_pilot4,5cfd4b59f7fd330016227259,55,0,-1,-1,"Closeness to parks,Reputation of closest school,Size of home,Quality of heat/AC system,Noise pollution,Quality of kitchen,Amount of traffic,Year building was built,Size of yard","25 min away,Very Good,1200 square feet,Very Bad,Low,Very Bad,A Little,1977,250 square feet","15 min away,Bad,1700 square feet,Good,Very High,Very Good,A Lot,2007,0 square feet",0,13504,2022-06-06 19:58:00,56345
6111e37fe81d1932ae8de5e8,ma_choice_v4_pilot4,6111e37fe81d1932ae8de5e8,53,0,-1,-1,"Reputation of closest school,Quality of kitchen,Year building was built,Closeness to parks,Size of yard,Size of home,Amount of traffic,Quality of heat/AC system,Noise pollution","Bad,Very Bad,1983,10 min away,250 square feet,1000 square feet,A Moderate Amount,Very Good,Low","Good,Moderate,2012,25 min away,550 square feet,1500 square feet,Very Little,Moderate,High",1,9020,2022-06-06 19:58:08,56346
61372727e083e6cd1c827f81,ma_choice_v4_pilot4,61372727e083e6cd1c827f81,23,0,-1,-1,"Reputation of closest school,Size of home,Size of yard,Year building was built,Noise pollution,Closeness to parks,Quality of heat/AC system,Quality of kitchen,Amount of traffic","Good,1200 square feet,350 square feet,2000,Low,30 min away,Bad,Very Bad,A Little","Bad,1600 square feet,200 square feet,1964,Very High,20 min away,Good,Very Good,A Lot",1,7572,2022-06-06 19:58:08,56347
6111e37fe81d1932ae8de5e8,ma_choice_v4_pilot4,6111e37fe81d1932ae8de5e8,54,0,-1,-1,"Reputation of closest school,Size of yard,Size of home,Quality of heat/AC system,Year building was built,Quality of kitchen,Noise pollution,Amount of traffic,Closeness to parks","Very Good,350 square feet,1100 square feet,Moderate,2010,Good,Low,Very Little,10 min away","Moderate,550 square feet,700 square feet,Very Bad,1959,Bad,Very High,A Moderate Amount,30 min away",0,8211,2022-06-06 19:58:17,56348
61372727e083e6cd1c827f81,ma_choice_v4_pilot4,61372727e083e6cd1c827f81,24,0,-1,-1,"Reputation of closest school,Size of yard,Quality of kitchen,Amount of traffic,Closeness to parks,Year building was built,Size of home,Quality of heat/AC system,Noise pollution","Very Good,350 square feet,Good,Very Little,10 min away,2010,1100 square feet,Moderate,Low","Moderate,550 square feet,Bad,A Moderate Amount,30 min away,1959,700 square feet,Very Bad,Very High",0,9771,2022-06-06 19:58:19,56349
5cfd4b59f7fd330016227259,ma_choice_v4_pilot4,5cfd4b59f7fd330016227259,56,0,-1,-1,"Reputation of closest school,Size of yard,Noise pollution,Quality of kitchen,Year building was built,Size of home,Quality of heat/AC system,Amount of traffic,Closeness to parks","Bad,450 square feet,Very High,Good,1959,1700 square feet,Bad,A Moderate Amount,30 min away","Good,250 square feet,Very Low,Very Bad,2004,1000 square feet,Good,Very Little,20 min away",1,21495,2022-06-06 19:58:23,56350
61372727e083e6cd1c827f81,ma_choice_v4_pilot4,61372727e083e6cd1c827f81,25,0,-1,-1,"Year building was built,Quality of heat/AC system,Reputation of closest school,Amount of traffic,Size of home,Quality of kitchen,Noise pollution,Size of yard,Closeness to parks","2016,Very Bad,Bad,A Little,1100 square feet,Very Good,Moderate,400 square feet,10 min away","1974,Good,Very Good,A Lot,1500 square feet,Very Bad,Very High,150 square feet,25 min away",0,7972,2022-06-06 19:58:28,56351
6111e37fe81d1932ae8de5e8,ma_choice_v4_pilot4,6111e37fe81d1932ae8de5e8,55,0,-1,-1,"Closeness to parks,Quality of kitchen,Noise pollution,Size of yard,Size of home,Year building was built,Quality of heat/AC system,Reputation of closest school,Amount of traffic","10 min away,Bad,Very High,250 square feet,1200 square feet,1954,Moderate,Good,Very Little","20 min away,Good,Very Low,0 square feet,1500 square feet,1980,Very Good,Bad,A Moderate Amount",0,12424,2022-06-06 19:58:31,56352
61372727e083e6cd1c827f81,ma_choice_v4_pilot4,61372727e083e6cd1c827f81,26,0,-1,-1,"Closeness to parks,Size of home,Year building was built,Noise pollution,Quality of heat/AC system,Amount of traffic,Size of yard,Quality of kitchen,Reputation of closest school","20 min away,600 square feet,1989,High,Moderate,A Lot,350 square feet,Very Bad,Bad","10 min away,1600 square feet,1961,Very Low,Very Good,A Little,50 square feet,Very Good,Very Good",1,7539,2022-06-06 19:58:36,56353
5cfd4b59f7fd330016227259,ma_choice_v4_pilot4,5cfd4b59f7fd330016227259,57,0,-1,-1,"Size of yard,Year building was built,Closeness to parks,Quality of kitchen,Reputation of closest school,Amount of traffic,Size of home,Noise pollution,Quality of heat/AC system","600 square feet,1990,25 min away,Moderate,Good,Very Little,1100 square feet,Very High,Very Bad","150 square feet,1956,10 min away,Very Bad,Very Bad,A Moderate Amount,1600 square feet,Low,Moderate",1,16814,2022-06-06 19:58:41,56354
61372727e083e6cd1c827f81,ma_choice_v4_pilot4,61372727e083e6cd1c827f81,27,0,-1,-1,"Size of yard,Amount of traffic,Year building was built,Noise pollution,Reputation of closest school,Quality of heat/AC system,Quality of kitchen,Closeness to parks,Size of home","350 square feet,A Little,1987,High,Bad,Very Bad,Very Bad,25 min away,900 square feet","50 square feet,A Lot,1952,Low,Very Good,Very Good,Very Good,10 min away,1800 square feet",1,7667,2022-06-06 19:58:45,56355
61372727e083e6cd1c827f81,ma_choice_v4_pilot4,61372727e083e6cd1c827f81,28,0,-1,-1,"Year building was built,Size of home,Amount of traffic,Reputation of closest school,Quality of kitchen,Noise pollution,Closeness to parks,Size of yard,Quality of heat/AC system","1959,1200 square feet,A Little,Good,Very Bad,Very Low,10 min away,400 square feet,Very Bad","1987,1700 square feet,A Lot,Bad,Good,Very High,20 min away,0 square feet,Moderate",1,7620,2022-06-06 19:58:54,56356
5cfd4b59f7fd330016227259,ma_choice_v4_pilot4,5cfd4b59f7fd330016227259,58,0,-1,-1,"Size of home,Size of yard,Year building was built,Closeness to parks,Amount of traffic,Quality of heat/AC system,Reputation of closest school,Noise pollution,Quality of kitchen","600 square feet,150 square feet,1961,20 min away,Very Little,Good,Good,Very Low,Very Good","1800 square feet,450 square feet,1986,30 min away,A Lot,Very Bad,Bad,High,Moderate",0,17910,2022-06-06 19:59:00,56357
6111e37fe81d1932ae8de5e8,ma_choice_v4_pilot4,6111e37fe81d1932ae8de5e8,56,0,-1,-1,"Reputation of closest school,Quality of heat/AC system,Year building was built,Quality of kitchen,Closeness to parks,Size of home,Size of yard,Amount of traffic,Noise pollution","Good,Very Good,1978,Moderate,30 min away,1300 square feet,200 square feet,Very Little,Low","Bad,Bad,1958,Very Good,10 min away,1000 square feet,450 square feet,A Lot,High",0,28224,2022-06-06 19:59:00,56358
61372727e083e6cd1c827f81,ma_choice_v4_pilot4,61372727e083e6cd1c827f81,29,0,-1,-1,"Quality of kitchen,Reputation of closest school,Quality of heat/AC system,Closeness to parks,Amount of traffic,Size of home,Noise pollution,Year building was built,Size of yard","Very Bad,Very Bad,Bad,10 min away,A Moderate Amount,1500 square feet,Very High,2005,500 square feet","Moderate,Very Good,Very Good,30 min away,Very Little,700 square feet,Moderate,1982,100 square feet",1,8171,2022-06-06 19:59:03,56359
61372727e083e6cd1c827f81,ma_choice_v4_pilot4,61372727e083e6cd1c827f81,30,0,-1,-1,"Reputation of closest school,Amount of traffic,Closeness to parks,Quality of heat/AC system,Size of yard,Size of home,Quality of kitchen,Noise pollution,Year building was built","Bad,A Lot,25 min away,Bad,50 square feet,1300 square feet,Moderate,High,1953","Very Good,A Little,15 min away,Very Good,550 square feet,900 square feet,Very Bad,Low,1984",1,7668,2022-06-06 19:59:12,56360
6111e37fe81d1932ae8de5e8,ma_choice_v4_pilot4,6111e37fe81d1932ae8de5e8,57,0,-1,-1,"Quality of heat/AC system,Amount of traffic,Noise pollution,Size of yard,Quality of kitchen,Year building was built,Size of home,Reputation of closest school,Closeness to parks","Bad,A Moderate Amount,Very Low,400 square feet,Very Good,1964,900 square feet,Good,10 min away","Good,Very Little,Moderate,600 square feet,Bad,2013,1500 square feet,Very Bad,30 min away",0,12169,2022-06-06 19:59:13,56361
5cfd4b59f7fd330016227259,ma_choice_v4_pilot4,5cfd4b59f7fd330016227259,59,0,-1,-1,"Quality of heat/AC system,Noise pollution,Size of home,Reputation of closest school,Year building was built,Size of yard,Closeness to parks,Amount of traffic,Quality of kitchen","Bad,Very High,800 square feet,Good,1965,100 square feet,20 min away,Very Little,Very Good","Good,Very Low,1800 square feet,Bad,1990,400 square feet,30 min away,A Lot,Bad",1,17573,2022-06-06 19:59:18,56362
61372727e083e6cd1c827f81,ma_choice_v4_pilot4,61372727e083e6cd1c827f81,31,0,-1,-1,"Year building was built,Size of yard,Noise pollution,Size of home,Amount of traffic,Reputation of closest school,Closeness to parks,Quality of heat/AC system,Quality of kitchen","1951,300 square feet,Low,1200 square feet,A Lot,Very Bad,10 min away,Moderate,Good","1972,500 square feet,High,900 square feet,A Little,Good,30 min away,Very Good,Bad",0,7554,2022-06-06 19:59:20,56363
61372727e083e6cd1c827f81,ma_choice_v4_pilot4,61372727e083e6cd1c827f81,32,0,-1,-1,"Size of yard,Size of home,Year building was built,Noise pollution,Reputation of closest school,Closeness to parks,Quality of heat/AC system,Amount of traffic,Quality of kitchen","100 square feet,1100 square feet,2006,Low,Very Good,30 min away,Very Bad,A Lot,Good","550 square feet,1400 square feet,1957,Very High,Moderate,10 min away,Very Good,A Little,Very Bad",0,7707,2022-06-06 19:59:29,56364
6111e37fe81d1932ae8de5e8,ma_choice_v4_pilot4,6111e37fe81d1932ae8de5e8,58,0,-1,-1,"Year building was built,Amount of traffic,Size of yard,Quality of kitchen,Size of home,Closeness to parks,Reputation of closest school,Quality of heat/AC system,Noise pollution","1964,Very Little,300 square feet,Bad,1100 square feet,15 min away,Very Bad,Very Good,Low","2000,A Moderate Amount,50 square feet,Good,700 square feet,25 min away,Good,Moderate,High",1,17027,2022-06-06 19:59:31,56365
61372727e083e6cd1c827f81,ma_choice_v4_pilot4,61372727e083e6cd1c827f81,33,0,-1,-1,"Amount of traffic,Noise pollution,Size of yard,Closeness to parks,Size of home,Quality of heat/AC system,Quality of kitchen,Year building was built,Reputation of closest school","Very Little,High,450 square feet,10 min away,700 square feet,Good,Bad,1950,Good","A Moderate Amount,Very Low,50 square feet,25 min away,1200 square feet,Very Bad,Very Good,1979,Bad",1,9851,2022-06-06 19:59:40,56366
5cfd4b59f7fd330016227259,ma_choice_v4_pilot4,5cfd4b59f7fd330016227259,60,0,-1,-1,"Quality of kitchen,Closeness to parks,Amount of traffic,Quality of heat/AC system,Noise pollution,Size of yard,Year building was built,Size of home,Reputation of closest school","Very Bad,25 min away,A Lot,Bad,Low,0 square feet,2013,1100 square feet,Very Bad","Moderate,15 min away,Very Little,Good,High,600 square feet,1968,600 square feet,Moderate",1,20597,2022-06-06 19:59:40,56367
61372727e083e6cd1c827f81,ma_choice_v4_pilot4,61372727e083e6cd1c827f81,34,0,-1,-1,"Quality of kitchen,Noise pollution,Closeness to parks,Year building was built,Reputation of closest school,Amount of traffic,Size of yard,Quality of heat/AC system,Size of home","Moderate,Very Low,10 min away,1958,Moderate,Very Little,50 square feet,Very Good,1800 square feet","Very Good,High,20 min away,2008,Very Good,A Moderate Amount,300 square feet,Moderate,600 square feet",0,7692,2022-06-06 19:59:48,56368
5cfd4b59f7fd330016227259,ma_choice_v4_pilot4,5cfd4b59f7fd330016227259,61,0,-1,-1,"Size of yard,Amount of traffic,Quality of kitchen,Quality of heat/AC system,Size of home,Year building was built,Closeness to parks,Reputation of closest school,Noise pollution","100 square feet,Very Little,Bad,Good,1500 square feet,1993,30 min away,Very Bad,Very High","300 square feet,A Lot,Very Good,Bad,1300 square feet,1957,20 min away,Moderate,Very Low",1,11079,2022-06-06 19:59:52,56369
61372727e083e6cd1c827f81,ma_choice_v4_pilot4,61372727e083e6cd1c827f81,35,0,-1,-1,"Reputation of closest school,Size of yard,Noise pollution,Quality of kitchen,Amount of traffic,Year building was built,Size of home,Closeness to parks,Quality of heat/AC system","Bad,100 square feet,Very High,Good,A Lot,1997,600 square feet,30 min away,Good","Good,250 square feet,Very Low,Very Bad,A Little,2017,900 square feet,15 min away,Very Bad",0,7500,2022-06-06 19:59:57,56370
6111e37fe81d1932ae8de5e8,ma_choice_v4_pilot4,6111e37fe81d1932ae8de5e8,59,0,-1,-1,"Closeness to parks,Size of home,Amount of traffic,Size of yard,Year building was built,Reputation of closest school,Quality of heat/AC system,Quality of kitchen,Noise pollution","25 min away,1100 square feet,A Moderate Amount,450 square feet,2013,Moderate,Moderate,Moderate,High","10 min away,1700 square feet,Very Little,200 square feet,1960,Very Bad,Very Good,Very Good,Very Low",0,29944,2022-06-06 20:00:02,56371
61372727e083e6cd1c827f81,ma_choice_v4_pilot4,61372727e083e6cd1c827f81,36,0,-1,-1,"Quality of heat/AC system,Reputation of closest school,Noise pollution,Year building was built,Closeness to parks,Size of home,Quality of kitchen,Amount of traffic,Size of yard","Very Good,Moderate,Moderate,1962,10 min away,1200 square feet,Moderate,Very Little,250 square feet","Very Bad,Very Good,Very Low,1998,25 min away,700 square feet,Very Bad,A Moderate Amount,400 square feet",0,7660,2022-06-06 20:00:06,56372
61372727e083e6cd1c827f81,ma_choice_v4_pilot4,61372727e083e6cd1c827f81,37,0,-1,-1,"Size of home,Quality of kitchen,Noise pollution,Year building was built,Reputation of closest school,Amount of traffic,Quality of heat/AC system,Size of yard,Closeness to parks","1000 square feet,Very Bad,Very High,2015,Very Bad,A Little,Very Good,500 square feet,25 min away","1300 square feet,Moderate,Low,1991,Moderate,A Lot,Very Bad,200 square feet,15 min away",1,7524,2022-06-06 20:00:14,56373
6111e37fe81d1932ae8de5e8,ma_choice_v4_pilot4,6111e37fe81d1932ae8de5e8,60,0,-1,-1,"Quality of kitchen,Closeness to parks,Year building was built,Size of yard,Quality of heat/AC system,Amount of traffic,Reputation of closest school,Noise pollution,Size of home","Bad,20 min away,2013,500 square feet,Very Good,Very Little,Moderate,High,1600 square feet","Very Good,10 min away,1954,350 square feet,Bad,A Moderate Amount,Very Good,Low,1300 square feet",1,12261,2022-06-06 20:00:15,56374
5cfd4b59f7fd330016227259,ma_choice_v4_pilot4,5cfd4b59f7fd330016227259,62,0,-1,-1,"Noise pollution,Reputation of closest school,Size of yard,Year building was built,Quality of heat/AC system,Amount of traffic,Size of home,Quality of kitchen,Closeness to parks","Very Low,Very Good,400 square feet,1998,Very Bad,A Moderate Amount,700 square feet,Very Bad,25 min away","Moderate,Moderate,250 square feet,1962,Very Good,Very Little,1200 square feet,Moderate,10 min away",1,31723,2022-06-06 20:00:25,56375
61372727e083e6cd1c827f81,ma_choice_v4_pilot4,61372727e083e6cd1c827f81,38,0,-1,-1,"Amount of traffic,Closeness to parks,Size of home,Year building was built,Noise pollution,Quality of heat/AC system,Reputation of closest school,Quality of kitchen,Size of yard","Very Little,25 min away,1400 square feet,2014,Very High,Bad,Moderate,Very Good,450 square feet","A Lot,10 min away,1800 square feet,1989,Low,Good,Very Good,Moderate,200 square feet",0,10744,2022-06-06 20:00:26,56376
61372727e083e6cd1c827f81,ma_choice_v4_pilot4,61372727e083e6cd1c827f81,39,0,-1,-1,"Noise pollution,Amount of traffic,Year building was built,Size of yard,Closeness to parks,Quality of kitchen,Size of home,Quality of heat/AC system,Reputation of closest school","Very High,A Little,2003,0 square feet,15 min away,Good,700 square feet,Very Bad,Very Good","Moderate,A Lot,1983,300 square feet,25 min away,Very Bad,1800 square feet,Moderate,Bad",0,7500,2022-06-06 20:00:34,56377
5cfd4b59f7fd330016227259,ma_choice_v4_pilot4,5cfd4b59f7fd330016227259,63,0,-1,-1,"Amount of traffic,Size of home,Size of yard,Quality of heat/AC system,Noise pollution,Year building was built,Closeness to parks,Quality of kitchen,Reputation of closest school","A Moderate Amount,1300 square feet,350 square feet,Bad,Low,1954,10 min away,Very Good,Very Good","Very Little,1600 square feet,500 square feet,Very Good,High,2013,20 min away,Bad,Moderate",0,9855,2022-06-06 20:00:35,56378
6111e37fe81d1932ae8de5e8,ma_choice_v4_pilot4,6111e37fe81d1932ae8de5e8,61,0,-1,-1,"Closeness to parks,Reputation of closest school,Quality of kitchen,Amount of traffic,Quality of heat/AC system,Year building was built,Noise pollution,Size of yard,Size of home","25 min away,Bad,Very Good,A Lot,Bad,2001,Very High,600 square feet,1600 square feet","15 min away,Good,Very Bad,Very Little,Good,1975,Moderate,350 square feet,800 square feet",1,22772,2022-06-06 20:00:39,56379
61372727e083e6cd1c827f81,ma_choice_v4_pilot4,61372727e083e6cd1c827f81,40,0,-1,-1,"Size of home,Quality of kitchen,Size of yard,Noise pollution,Reputation of closest school,Year building was built,Amount of traffic,Closeness to parks,Quality of heat/AC system","600 square feet,Very Bad,550 square feet,Moderate,Bad,2005,A Moderate Amount,30 min away,Good","800 square feet,Good,50 square feet,Very High,Good,1973,Very Little,15 min away,Bad",1,7492,2022-06-06 20:00:43,56380
6111e37fe81d1932ae8de5e8,ma_choice_v4_pilot4,6111e37fe81d1932ae8de5e8,62,0,-1,-1,"Size of yard,Year building was built,Noise pollution,Reputation of closest school,Amount of traffic,Size of home,Closeness to parks,Quality of heat/AC system,Quality of kitchen","350 square feet,1987,Very Low,Very Good,A Little,1100 square feet,30 min away,Very Bad,Very Good","150 square feet,1956,High,Very Bad,A Lot,600 square feet,15 min away,Very Good,Very Bad",0,8264,2022-06-06 20:00:48,56381
5cfd4b59f7fd330016227259,ma_choice_v4_pilot4,5cfd4b59f7fd330016227259,64,0,-1,-1,"Closeness to parks,Amount of traffic,Noise pollution,Size of yard,Reputation of closest school,Quality of heat/AC system,Size of home,Year building was built,Quality of kitchen","30 min away,Very Little,Very High,550 square feet,Very Good,Good,900 square feet,1970,Very Good","20 min away,A Moderate Amount,Moderate,300 square feet,Bad,Bad,1700 square feet,2010,Very Bad",1,12182,2022-06-06 20:00:49,56382
61372727e083e6cd1c827f81,ma_choice_v4_pilot4,61372727e083e6cd1c827f81,41,0,-1,-1,"Quality of kitchen,Year building was built,Size of home,Reputation of closest school,Closeness to parks,Amount of traffic,Quality of heat/AC system,Size of yard,Noise pollution","Moderate,2019,800 square feet,Very Bad,15 min away,A Lot,Good,350 square feet,Moderate","Very Good,1987,600 square feet,Moderate,30 min away,A Little,Very Bad,600 square feet,Very Low",1,8243,2022-06-06 20:00:52,56383
6111e37fe81d1932ae8de5e8,ma_choice_v4_pilot4,6111e37fe81d1932ae8de5e8,63,0,-1,-1,"Size of yard,Noise pollution,Reputation of closest school,Closeness to parks,Size of home,Amount of traffic,Quality of heat/AC system,Year building was built,Quality of kitchen","450 square feet,Very Low,Good,25 min away,1300 square feet,A Moderate Amount,Very Bad,1953,Very Good","0 square feet,Very High,Bad,15 min away,1600 square feet,Very Little,Very Good,1987,Moderate",0,9712,2022-06-06 20:00:59,56384
5cfd4b59f7fd330016227259,ma_choice_v4_pilot4,5cfd4b59f7fd330016227259,65,0,-1,-1,"Noise pollution,Year building was built,Quality of heat/AC system,Reputation of closest school,Size of yard,Closeness to parks,Quality of kitchen,Amount of traffic,Size of home","High,2000,Moderate,Good,50 square feet,25 min away,Good,A Moderate Amount,700 square feet","Low,1964,Very Good,Very Bad,300 square feet,15 min away,Bad,Very Little,1100 square feet",1,10387,2022-06-06 20:01:00,56385
61372727e083e6cd1c827f81,ma_choice_v4_pilot4,61372727e083e6cd1c827f81,42,0,-1,-1,"Noise pollution,Reputation of closest school,Amount of traffic,Year building was built,Size of home,Quality of kitchen,Quality of heat/AC system,Size of yard,Closeness to parks","High,Bad,A Little,1964,1100 square feet,Good,Moderate,300 square feet,20 min away","Very Low,Very Good,A Lot,2018,800 square feet,Bad,Very Bad,50 square feet,10 min away",0,7492,2022-06-06 20:01:01,56386
61372727e083e6cd1c827f81,ma_choice_v4_pilot4,61372727e083e6cd1c827f81,43,0,-1,-1,"Quality of kitchen,Size of home,Quality of heat/AC system,Amount of traffic,Size of yard,Year building was built,Reputation of closest school,Closeness to parks,Noise pollution","Very Good,900 square feet,Very Bad,A Little,100 square feet,1950,Bad,20 min away,High","Moderate,1300 square feet,Very Good,A Lot,400 square feet,1971,Very Good,30 min away,Low",0,7978,2022-06-06 20:01:10,56387
6111e37fe81d1932ae8de5e8,ma_choice_v4_pilot4,6111e37fe81d1932ae8de5e8,64,0,-1,-1,"Amount of traffic,Reputation of closest school,Noise pollution,Size of yard,Quality of heat/AC system,Closeness to parks,Year building was built,Quality of kitchen,Size of home","Very Little,Moderate,Very Low,200 square feet,Very Good,10 min away,2016,Good,700 square feet","A Moderate Amount,Very Good,High,550 square feet,Bad,20 min away,1974,Very Bad,1500 square feet",0,13218,2022-06-06 20:01:13,56388
5cfd4b59f7fd330016227259,ma_choice_v4_pilot4,5cfd4b59f7fd330016227259,66,0,-1,-1,"Year building was built,Closeness to parks,Quality of heat/AC system,Amount of traffic,Quality of kitchen,Size of home,Size of yard,Reputation of closest school,Noise pollution","1999,30 min away,Bad,Very Little,Very Bad,1300 square feet,550 square feet,Good,Very Low","1970,15 min away,Very Good,A Lot,Moderate,700 square feet,200 square feet,Bad,Moderate",0,14118,2022-06-06 20:01:15,56389
61372727e083e6cd1c827f81,ma_choice_v4_pilot4,61372727e083e6cd1c827f81,44,0,-1,-1,"Closeness to parks,Quality of kitchen,Noise pollution,Size of home,Size of yard,Amount of traffic,Reputation of closest school,Quality of heat/AC system,Year building was built","15 min away,Bad,Low,1100 square feet,300 square feet,Very Little,Very Bad,Very Good,1964","25 min away,Good,High,700 square feet,50 square feet,A Moderate Amount,Good,Moderate,2000",1,7657,2022-06-06 20:01:18,56390
61372727e083e6cd1c827f81,ma_choice_v4_pilot4,61372727e083e6cd1c827f81,45,0,-1,-1,"Reputation of closest school,Noise pollution,Size of home,Quality of kitchen,Closeness to parks,Year building was built,Size of yard,Quality of heat/AC system,Amount of traffic","Bad,Very Low,900 square feet,Moderate,30 min away,2000,300 square feet,Very Good,Very Little","Very Good,Moderate,1600 square feet,Very Bad,20 min away,1951,50 square feet,Bad,A Moderate Amount",0,7748,2022-06-06 20:01:27,56391
6111e37fe81d1932ae8de5e8,ma_choice_v4_pilot4,6111e37fe81d1932ae8de5e8,65,0,-1,-1,"Noise pollution,Quality of heat/AC system,Amount of traffic,Closeness to parks,Quality of kitchen,Year building was built,Size of yard,Reputation of closest school,Size of home","Very High,Bad,Very Little,20 min away,Very Good,1965,100 square feet,Good,800 square feet","Very Low,Good,A Lot,30 min away,Bad,1990,400 square feet,Bad,1800 square feet",0,20903,2022-06-06 20:01:35,56392
