subject,version,assignmentId,trial,attribute,rating,least_preferred,most_preferred,type,rt,rt2,full_or_lex,signed_weights,original_or_followup,stamp,id
61372727e083e6cd1c827f81,ma_choice_v4_pilot4,61372727e083e6cd1c827f81,7,Amount of traffic,25,,,wad_att_rating,4758,,,,,2022-06-06 20:09:52,16472
61372727e083e6cd1c827f81,ma_choice_v4_pilot4,61372727e083e6cd1c827f81,0,Closeness to parks,24,,,wad_att_rating,3766,,,,,2022-06-06 20:09:56,16473
61372727e083e6cd1c827f81,ma_choice_v4_pilot4,61372727e083e6cd1c827f81,1,Noise pollution,25,,,wad_att_rating,2454,,,,,2022-06-06 20:09:59,16474
61372727e083e6cd1c827f81,ma_choice_v4_pilot4,61372727e083e6cd1c827f81,8,Size of home,12,,,wad_att_rating,2270,,,,,2022-06-06 20:10:01,16475
61372727e083e6cd1c827f81,ma_choice_v4_pilot4,61372727e083e6cd1c827f81,2,Reputation of closest school,0,,,wad_att_rating,2902,,,,,2022-06-06 20:10:04,16476
61372727e083e6cd1c827f81,ma_choice_v4_pilot4,61372727e083e6cd1c827f81,3,Year building was built,0,,,wad_att_rating,2054,,,,,2022-06-06 20:10:06,16477
61372727e083e6cd1c827f81,ma_choice_v4_pilot4,61372727e083e6cd1c827f81,4,Size of yard,11,,,wad_att_rating,2886,,,,,2022-06-06 20:10:09,16478
61372727e083e6cd1c827f81,ma_choice_v4_pilot4,61372727e083e6cd1c827f81,6,Quality of heat/AC system,37,,,wad_att_rating,3446,,,,,2022-06-06 20:10:12,16479
5cfd4b59f7fd330016227259,ma_choice_v4_pilot4,5cfd4b59f7fd330016227259,3,Year building was built,37,,,wad_att_rating,9148,,,,,2022-06-06 20:10:15,16480
61372727e083e6cd1c827f81,ma_choice_v4_pilot4,61372727e083e6cd1c827f81,5,Quality of kitchen,100,,,wad_att_rating,3069,,,,,2022-06-06 20:10:15,16481
61372727e083e6cd1c827f81,ma_choice_v4_pilot4,61372727e083e6cd1c827f81,0,Quality of kitchen,1,,,ew_att_rating,7755,,,,,2022-06-06 20:10:26,16482
5cfd4b59f7fd330016227259,ma_choice_v4_pilot4,5cfd4b59f7fd330016227259,2,Reputation of closest school,11,,,wad_att_rating,11483,,,,,2022-06-06 20:10:27,16483
61372727e083e6cd1c827f81,ma_choice_v4_pilot4,61372727e083e6cd1c827f81,0,Quality of kitchen,1,,,lex_att_rating,5542,,,,,2022-06-06 20:10:34,16484
5cfd4b59f7fd330016227259,ma_choice_v4_pilot4,5cfd4b59f7fd330016227259,0,Closeness to parks,1,,,wad_att_rating,12061,,,,,2022-06-06 20:10:39,16485
5cfd4b59f7fd330016227259,ma_choice_v4_pilot4,5cfd4b59f7fd330016227259,4,Size of yard,87,,,wad_att_rating,8444,,,,,2022-06-06 20:10:47,16486
5cfd4b59f7fd330016227259,ma_choice_v4_pilot4,5cfd4b59f7fd330016227259,1,Noise pollution,80,,,wad_att_rating,4973,,,,,2022-06-06 20:10:52,16487
5cfd4b59f7fd330016227259,ma_choice_v4_pilot4,5cfd4b59f7fd330016227259,7,Amount of traffic,83,,,wad_att_rating,4484,,,,,2022-06-06 20:10:57,16488
5cfd4b59f7fd330016227259,ma_choice_v4_pilot4,5cfd4b59f7fd330016227259,6,Quality of heat/AC system,50,,,wad_att_rating,4670,,,,,2022-06-06 20:11:01,16489
5cfd4b59f7fd330016227259,ma_choice_v4_pilot4,5cfd4b59f7fd330016227259,8,Size of home,62,,,wad_att_rating,5138,,,,,2022-06-06 20:11:06,16490
5cfd4b59f7fd330016227259,ma_choice_v4_pilot4,5cfd4b59f7fd330016227259,5,Quality of kitchen,40,,,wad_att_rating,5205,,,,,2022-06-06 20:11:12,16491
5cfd4b59f7fd330016227259,ma_choice_v4_pilot4,5cfd4b59f7fd330016227259,0,Noise pollution,1,,,ew_att_rating,12075,,,,,2022-06-06 20:11:35,16492
5cfd4b59f7fd330016227259,ma_choice_v4_pilot4,5cfd4b59f7fd330016227259,0,Size of yard,1,,,ew_att_rating,12075,,,,,2022-06-06 20:11:35,16493
5cfd4b59f7fd330016227259,ma_choice_v4_pilot4,5cfd4b59f7fd330016227259,0,Size of home,1,,,ew_att_rating,12075,,,,,2022-06-06 20:11:35,16494
5cfd4b59f7fd330016227259,ma_choice_v4_pilot4,5cfd4b59f7fd330016227259,0,Amount of traffic,1,,,ew_att_rating,12075,,,,,2022-06-06 20:11:35,16495
5cfd4b59f7fd330016227259,ma_choice_v4_pilot4,5cfd4b59f7fd330016227259,0,Size of yard,1,,,lex_att_rating,5371,,,,,2022-06-06 20:11:48,16496
61372727e083e6cd1c827f81,ma_choice_v4_pilot4,61372727e083e6cd1c827f81,7,Amount of traffic,-1,Very Little,A Lot,direction,3942,,,,,2022-06-06 20:14:09,16497
61372727e083e6cd1c827f81,ma_choice_v4_pilot4,61372727e083e6cd1c827f81,1,Noise pollution,-1,Very Low,Very High,direction,1942,,,,,2022-06-06 20:14:13,16498
61372727e083e6cd1c827f81,ma_choice_v4_pilot4,61372727e083e6cd1c827f81,0,Closeness to parks,-1,20 min away,20 min away,direction,1902,,,,,2022-06-06 20:14:20,16499
61372727e083e6cd1c827f81,ma_choice_v4_pilot4,61372727e083e6cd1c827f81,8,Size of home,-1,1200 square feet,600 square feet,direction,1663,,,,,2022-06-06 20:14:25,16500
61372727e083e6cd1c827f81,ma_choice_v4_pilot4,61372727e083e6cd1c827f81,5,Quality of kitchen,-1,Very Good,Very Bad,direction,1502,,,,,2022-06-06 20:14:32,16501
61372727e083e6cd1c827f81,ma_choice_v4_pilot4,61372727e083e6cd1c827f81,4,Size of yard,-1,600 square feet,0 square feet,direction,1479,,,,,2022-06-06 20:14:36,16502
61372727e083e6cd1c827f81,ma_choice_v4_pilot4,61372727e083e6cd1c827f81,2,Reputation of closest school,-1,Very Good,Very Bad,direction,1270,,,,,2022-06-06 20:14:40,16503
61372727e083e6cd1c827f81,ma_choice_v4_pilot4,61372727e083e6cd1c827f81,3,Year building was built,-1,2020,1950,direction,1695,,,,,2022-06-06 20:14:44,16504
61372727e083e6cd1c827f81,ma_choice_v4_pilot4,61372727e083e6cd1c827f81,6,Quality of heat/AC system,-1,Very Good,Very Bad,direction,1406,,,,,2022-06-06 20:14:48,16505
6111e37fe81d1932ae8de5e8,ma_choice_v4_pilot4,6111e37fe81d1932ae8de5e8,0,Closeness to parks,11,,,wad_att_rating,12367,,,,,2022-06-06 20:19:29,16506
6111e37fe81d1932ae8de5e8,ma_choice_v4_pilot4,6111e37fe81d1932ae8de5e8,7,Amount of traffic,25,,,wad_att_rating,11076,,,,,2022-06-06 20:19:40,16507
6111e37fe81d1932ae8de5e8,ma_choice_v4_pilot4,6111e37fe81d1932ae8de5e8,4,Size of yard,47,,,wad_att_rating,5688,,,,,2022-06-06 20:19:46,16508
6111e37fe81d1932ae8de5e8,ma_choice_v4_pilot4,6111e37fe81d1932ae8de5e8,5,Quality of kitchen,86,,,wad_att_rating,4078,,,,,2022-06-06 20:19:50,16509
6111e37fe81d1932ae8de5e8,ma_choice_v4_pilot4,6111e37fe81d1932ae8de5e8,2,Reputation of closest school,89,,,wad_att_rating,3861,,,,,2022-06-06 20:19:54,16510
6111e37fe81d1932ae8de5e8,ma_choice_v4_pilot4,6111e37fe81d1932ae8de5e8,6,Quality of heat/AC system,76,,,wad_att_rating,12171,,,,,2022-06-06 20:20:06,16511
6111e37fe81d1932ae8de5e8,ma_choice_v4_pilot4,6111e37fe81d1932ae8de5e8,3,Year building was built,24,,,wad_att_rating,3487,,,,,2022-06-06 20:20:10,16512
5cfd4b59f7fd330016227259,ma_choice_v4_pilot4,5cfd4b59f7fd330016227259,2,Reputation of closest school,-1,Good,Very Bad,direction,6565,,,,,2022-06-06 20:20:12,16513
6111e37fe81d1932ae8de5e8,ma_choice_v4_pilot4,6111e37fe81d1932ae8de5e8,8,Size of home,51,,,wad_att_rating,3387,,,,,2022-06-06 20:20:13,16514
6111e37fe81d1932ae8de5e8,ma_choice_v4_pilot4,6111e37fe81d1932ae8de5e8,1,Noise pollution,11,,,wad_att_rating,3432,,,,,2022-06-06 20:20:16,16515
5cfd4b59f7fd330016227259,ma_choice_v4_pilot4,5cfd4b59f7fd330016227259,5,Quality of kitchen,-1,Good,Very Bad,direction,3724,,,,,2022-06-06 20:20:24,16516
5cfd4b59f7fd330016227259,ma_choice_v4_pilot4,5cfd4b59f7fd330016227259,4,Size of yard,-1,600 square feet,0 square feet,direction,4775,,,,,2022-06-06 20:20:34,16517
6111e37fe81d1932ae8de5e8,ma_choice_v4_pilot4,6111e37fe81d1932ae8de5e8,0,Size of yard,1,,,ew_att_rating,12017,,,,,2022-06-06 20:20:38,16518
6111e37fe81d1932ae8de5e8,ma_choice_v4_pilot4,6111e37fe81d1932ae8de5e8,0,Reputation of closest school,1,,,ew_att_rating,12017,,,,,2022-06-06 20:20:38,16519
6111e37fe81d1932ae8de5e8,ma_choice_v4_pilot4,6111e37fe81d1932ae8de5e8,0,Size of home,1,,,ew_att_rating,12017,,,,,2022-06-06 20:20:38,16520
6111e37fe81d1932ae8de5e8,ma_choice_v4_pilot4,6111e37fe81d1932ae8de5e8,0,Quality of heat/AC system,1,,,ew_att_rating,12017,,,,,2022-06-06 20:20:38,16521
6111e37fe81d1932ae8de5e8,ma_choice_v4_pilot4,6111e37fe81d1932ae8de5e8,0,Quality of kitchen,1,,,ew_att_rating,12017,,,,,2022-06-06 20:20:38,16522
5cfd4b59f7fd330016227259,ma_choice_v4_pilot4,5cfd4b59f7fd330016227259,6,Quality of heat/AC system,-1,Very Good,Very Bad,direction,6199,,,,,2022-06-06 20:20:47,16523
6111e37fe81d1932ae8de5e8,ma_choice_v4_pilot4,6111e37fe81d1932ae8de5e8,0,Quality of kitchen,1,,,lex_att_rating,7322,,,,,2022-06-06 20:20:52,16524
5cfd4b59f7fd330016227259,ma_choice_v4_pilot4,5cfd4b59f7fd330016227259,0,Closeness to parks,-1,10 min away,30 min away,direction,4085,,,,,2022-06-06 20:21:01,16525
5cfd4b59f7fd330016227259,ma_choice_v4_pilot4,5cfd4b59f7fd330016227259,1,Noise pollution,-1,Very Low,Very High,direction,2949,,,,,2022-06-06 20:21:09,16526
5cfd4b59f7fd330016227259,ma_choice_v4_pilot4,5cfd4b59f7fd330016227259,3,Year building was built,-1,2020,1950,direction,5871,,,,,2022-06-06 20:21:21,16527
5cfd4b59f7fd330016227259,ma_choice_v4_pilot4,5cfd4b59f7fd330016227259,8,Size of home,-1,1800 square feet,600 square feet,direction,4180,,,,,2022-06-06 20:21:31,16528
5cfd4b59f7fd330016227259,ma_choice_v4_pilot4,5cfd4b59f7fd330016227259,7,Amount of traffic,-1,Very Little,A Lot,direction,4245,,,,,2022-06-06 20:21:41,16529
6111e37fe81d1932ae8de5e8,ma_choice_v4_pilot4,6111e37fe81d1932ae8de5e8,3,Year building was built,-1,2020,1950,direction,9342,,,,,2022-06-06 20:24:34,16530
6111e37fe81d1932ae8de5e8,ma_choice_v4_pilot4,6111e37fe81d1932ae8de5e8,5,Quality of kitchen,-1,Very Good,Very Bad,direction,2561,,,,,2022-06-06 20:24:42,16531
6111e37fe81d1932ae8de5e8,ma_choice_v4_pilot4,6111e37fe81d1932ae8de5e8,1,Noise pollution,-1,Very Low,Very High,direction,4130,,,,,2022-06-06 20:24:51,16532
6111e37fe81d1932ae8de5e8,ma_choice_v4_pilot4,6111e37fe81d1932ae8de5e8,6,Quality of heat/AC system,-1,Very Good,Very Bad,direction,2126,,,,,2022-06-06 20:24:57,16533
6111e37fe81d1932ae8de5e8,ma_choice_v4_pilot4,6111e37fe81d1932ae8de5e8,4,Size of yard,-1,600 square feet,0 square feet,direction,1876,,,,,2022-06-06 20:25:01,16534
6111e37fe81d1932ae8de5e8,ma_choice_v4_pilot4,6111e37fe81d1932ae8de5e8,8,Size of home,-1,1800 square feet,600 square feet,direction,2320,,,,,2022-06-06 20:25:06,16535
6111e37fe81d1932ae8de5e8,ma_choice_v4_pilot4,6111e37fe81d1932ae8de5e8,0,Closeness to parks,-1,10 min away,30 min away,direction,3180,,,,,2022-06-06 20:25:14,16536
6111e37fe81d1932ae8de5e8,ma_choice_v4_pilot4,6111e37fe81d1932ae8de5e8,2,Reputation of closest school,-1,Very Good,Very Bad,direction,2347,,,,,2022-06-06 20:25:19,16537
6111e37fe81d1932ae8de5e8,ma_choice_v4_pilot4,6111e37fe81d1932ae8de5e8,7,Amount of traffic,-1,Very Little,A Lot,direction,2746,,,,,2022-06-06 20:25:28,16538
628bc0d63d16d399b19e1120,ma_choice_v4_pilot4,628bc0d63d16d399b19e1120,3,Year building was built,2,,,wad_att_rating,5497,,,,,2022-06-06 20:40:39,16539
628bc0d63d16d399b19e1120,ma_choice_v4_pilot4,628bc0d63d16d399b19e1120,5,Quality of kitchen,86,,,wad_att_rating,11579,,,,,2022-06-06 20:40:51,16540
628bc0d63d16d399b19e1120,ma_choice_v4_pilot4,628bc0d63d16d399b19e1120,2,Reputation of closest school,99,,,wad_att_rating,6079,,,,,2022-06-06 20:40:57,16541
628bc0d63d16d399b19e1120,ma_choice_v4_pilot4,628bc0d63d16d399b19e1120,4,Size of yard,61,,,wad_att_rating,3029,,,,,2022-06-06 20:41:00,16542
628bc0d63d16d399b19e1120,ma_choice_v4_pilot4,628bc0d63d16d399b19e1120,6,Quality of heat/AC system,24,,,wad_att_rating,3162,,,,,2022-06-06 20:41:03,16543
628bc0d63d16d399b19e1120,ma_choice_v4_pilot4,628bc0d63d16d399b19e1120,1,Noise pollution,56,,,wad_att_rating,3279,,,,,2022-06-06 20:41:06,16544
628bc0d63d16d399b19e1120,ma_choice_v4_pilot4,628bc0d63d16d399b19e1120,7,Amount of traffic,67,,,wad_att_rating,3030,,,,,2022-06-06 20:41:09,16545
628bc0d63d16d399b19e1120,ma_choice_v4_pilot4,628bc0d63d16d399b19e1120,0,Closeness to parks,79,,,wad_att_rating,4079,,,,,2022-06-06 20:41:13,16546
628bc0d63d16d399b19e1120,ma_choice_v4_pilot4,628bc0d63d16d399b19e1120,8,Size of home,56,,,wad_att_rating,2546,,,,,2022-06-06 20:41:16,16547
628bc0d63d16d399b19e1120,ma_choice_v4_pilot4,628bc0d63d16d399b19e1120,0,Reputation of closest school,1,,,lex_att_rating,2663,,,,,2022-06-06 20:41:22,16548
628bc0d63d16d399b19e1120,ma_choice_v4_pilot4,628bc0d63d16d399b19e1120,0,Reputation of closest school,1,,,ew_att_rating,5476,,,,,2022-06-06 20:41:31,16549
628bc0d63d16d399b19e1120,ma_choice_v4_pilot4,628bc0d63d16d399b19e1120,0,Quality of kitchen,1,,,ew_att_rating,5476,,,,,2022-06-06 20:41:31,16550
628bc0d63d16d399b19e1120,ma_choice_v4_pilot4,628bc0d63d16d399b19e1120,0,Closeness to parks,1,,,ew_att_rating,5476,,,,,2022-06-06 20:41:31,16551
AdamDenomme,ma_choice_v4_pilot4,629e4c42f23fa4850db5e7e8,0,Quality of heat/AC system,1,,,ew_att_rating,12971,,,,,2022-06-06 20:43:43,16552
AdamDenomme,ma_choice_v4_pilot4,629e4c42f23fa4850db5e7e8,0,Amount of traffic,1,,,ew_att_rating,12971,,,,,2022-06-06 20:43:43,16553
AdamDenomme,ma_choice_v4_pilot4,629e4c42f23fa4850db5e7e8,0,Noise pollution,1,,,ew_att_rating,12971,,,,,2022-06-06 20:43:43,16554
AdamDenomme,ma_choice_v4_pilot4,629e4c42f23fa4850db5e7e8,1,Noise pollution,75,,,wad_att_rating,4043,,,,,2022-06-06 20:43:57,16555
AdamDenomme,ma_choice_v4_pilot4,629e4c42f23fa4850db5e7e8,5,Quality of kitchen,0,,,wad_att_rating,4048,,,,,2022-06-06 20:44:01,16556
AdamDenomme,ma_choice_v4_pilot4,629e4c42f23fa4850db5e7e8,6,Quality of heat/AC system,50,,,wad_att_rating,3074,,,,,2022-06-06 20:44:04,16557
AdamDenomme,ma_choice_v4_pilot4,629e4c42f23fa4850db5e7e8,4,Size of yard,0,,,wad_att_rating,1826,,,,,2022-06-06 20:44:06,16558
AdamDenomme,ma_choice_v4_pilot4,629e4c42f23fa4850db5e7e8,2,Reputation of closest school,0,,,wad_att_rating,2462,,,,,2022-06-06 20:44:08,16559
AdamDenomme,ma_choice_v4_pilot4,629e4c42f23fa4850db5e7e8,8,Size of home,0,,,wad_att_rating,1719,,,,,2022-06-06 20:44:10,16560
AdamDenomme,ma_choice_v4_pilot4,629e4c42f23fa4850db5e7e8,3,Year building was built,23,,,wad_att_rating,4396,,,,,2022-06-06 20:44:14,16561
AdamDenomme,ma_choice_v4_pilot4,629e4c42f23fa4850db5e7e8,7,Amount of traffic,100,,,wad_att_rating,3153,,,,,2022-06-06 20:44:17,16562
AdamDenomme,ma_choice_v4_pilot4,629e4c42f23fa4850db5e7e8,0,Closeness to parks,24,,,wad_att_rating,2319,,,,,2022-06-06 20:44:20,16563
AdamDenomme,ma_choice_v4_pilot4,629e4c42f23fa4850db5e7e8,0,Amount of traffic,1,,,lex_att_rating,3012,,,,,2022-06-06 20:44:28,16564
629e202465d7385d50c7287b,ma_choice_v4_pilot4,629e202465d7385d50c7287b,4,Size of yard,4,,,wad_att_rating,11731,,,,,2022-06-06 20:44:35,16565
629e202465d7385d50c7287b,ma_choice_v4_pilot4,629e202465d7385d50c7287b,0,Closeness to parks,15,,,wad_att_rating,19339,,,,,2022-06-06 20:44:54,16566
629e202465d7385d50c7287b,ma_choice_v4_pilot4,629e202465d7385d50c7287b,2,Reputation of closest school,78,,,wad_att_rating,10029,,,,,2022-06-06 20:45:04,16567
629e202465d7385d50c7287b,ma_choice_v4_pilot4,629e202465d7385d50c7287b,7,Amount of traffic,3,,,wad_att_rating,3246,,,,,2022-06-06 20:45:07,16568
629e202465d7385d50c7287b,ma_choice_v4_pilot4,629e202465d7385d50c7287b,1,Noise pollution,4,,,wad_att_rating,3897,,,,,2022-06-06 20:45:11,16569
629e202465d7385d50c7287b,ma_choice_v4_pilot4,629e202465d7385d50c7287b,6,Quality of heat/AC system,3,,,wad_att_rating,2642,,,,,2022-06-06 20:45:14,16570
629e202465d7385d50c7287b,ma_choice_v4_pilot4,629e202465d7385d50c7287b,3,Year building was built,4,,,wad_att_rating,2630,,,,,2022-06-06 20:45:16,16571
629e202465d7385d50c7287b,ma_choice_v4_pilot4,629e202465d7385d50c7287b,5,Quality of kitchen,12,,,wad_att_rating,2610,,,,,2022-06-06 20:45:19,16572
629e202465d7385d50c7287b,ma_choice_v4_pilot4,629e202465d7385d50c7287b,8,Size of home,78,,,wad_att_rating,5653,,,,,2022-06-06 20:45:25,16573
629e202465d7385d50c7287b,ma_choice_v4_pilot4,629e202465d7385d50c7287b,0,Reputation of closest school,1,,,ew_att_rating,16112,,,,,2022-06-06 20:45:48,16574
629e202465d7385d50c7287b,ma_choice_v4_pilot4,629e202465d7385d50c7287b,0,Closeness to parks,1,,,ew_att_rating,16112,,,,,2022-06-06 20:45:48,16575
629e202465d7385d50c7287b,ma_choice_v4_pilot4,629e202465d7385d50c7287b,0,Size of home,1,,,ew_att_rating,16112,,,,,2022-06-06 20:45:48,16576
629e202465d7385d50c7287b,ma_choice_v4_pilot4,629e202465d7385d50c7287b,0,Size of home,1,,,lex_att_rating,4521,,,,,2022-06-06 20:45:56,16577
5e83abb4e0a2e40fd565226d,ma_choice_v4_pilot4,5e83abb4e0a2e40fd565226d,0,Amount of traffic,1,,,ew_att_rating,4703,,,,,2022-06-06 20:47:44,16578
5e83abb4e0a2e40fd565226d,ma_choice_v4_pilot4,5e83abb4e0a2e40fd565226d,0,Noise pollution,1,,,ew_att_rating,4703,,,,,2022-06-06 20:47:44,16579
5e0571b7e297d5fa932cf415,ma_choice_v4_pilot4,5e0571b7e297d5fa932cf415,0,Quality of kitchen,1,,,ew_att_rating,12151,,,,,2022-06-06 20:47:46,16580
5e0571b7e297d5fa932cf415,ma_choice_v4_pilot4,5e0571b7e297d5fa932cf415,0,Quality of heat/AC system,1,,,ew_att_rating,12151,,,,,2022-06-06 20:47:46,16581
5e0571b7e297d5fa932cf415,ma_choice_v4_pilot4,5e0571b7e297d5fa932cf415,0,Size of home,1,,,ew_att_rating,12151,,,,,2022-06-06 20:47:46,16582
5e83abb4e0a2e40fd565226d,ma_choice_v4_pilot4,5e83abb4e0a2e40fd565226d,8,Size of home,0,,,wad_att_rating,5203,,,,,2022-06-06 20:47:59,16583
5e83abb4e0a2e40fd565226d,ma_choice_v4_pilot4,5e83abb4e0a2e40fd565226d,3,Year building was built,25,,,wad_att_rating,4174,,,,,2022-06-06 20:48:04,16584
5e83abb4e0a2e40fd565226d,ma_choice_v4_pilot4,5e83abb4e0a2e40fd565226d,1,Noise pollution,100,,,wad_att_rating,3448,,,,,2022-06-06 20:48:07,16585
AdamDenomme,ma_choice_v4_pilot4,629e4c42f23fa4850db5e7e8,1,Noise pollution,-1,Very Low,Very High,direction,2446,,,,,2022-06-06 20:48:08,16586
5e0571b7e297d5fa932cf415,ma_choice_v4_pilot4,5e0571b7e297d5fa932cf415,0,Closeness to parks,0,,,wad_att_rating,8460,,,,,2022-06-06 20:48:08,16587
5e83abb4e0a2e40fd565226d,ma_choice_v4_pilot4,5e83abb4e0a2e40fd565226d,6,Quality of heat/AC system,23,,,wad_att_rating,3484,,,,,2022-06-06 20:48:10,16588
AdamDenomme,ma_choice_v4_pilot4,629e4c42f23fa4850db5e7e8,0,Closeness to parks,-1,10 min away,30 min away,direction,1392,,,,,2022-06-06 20:48:12,16589
5e83abb4e0a2e40fd565226d,ma_choice_v4_pilot4,5e83abb4e0a2e40fd565226d,4,Size of yard,1,,,wad_att_rating,3347,,,,,2022-06-06 20:48:14,16590
5e0571b7e297d5fa932cf415,ma_choice_v4_pilot4,5e0571b7e297d5fa932cf415,8,Size of home,85,,,wad_att_rating,7800,,,,,2022-06-06 20:48:16,16591
5e83abb4e0a2e40fd565226d,ma_choice_v4_pilot4,5e83abb4e0a2e40fd565226d,2,Reputation of closest school,1,,,wad_att_rating,2710,,,,,2022-06-06 20:48:17,16592
AdamDenomme,ma_choice_v4_pilot4,629e4c42f23fa4850db5e7e8,3,Year building was built,-1,2020,1950,direction,1414,,,,,2022-06-06 20:48:20,16593
5e0571b7e297d5fa932cf415,ma_choice_v4_pilot4,5e0571b7e297d5fa932cf415,4,Size of yard,12,,,wad_att_rating,5411,,,,,2022-06-06 20:48:22,16594
AdamDenomme,ma_choice_v4_pilot4,629e4c42f23fa4850db5e7e8,7,Amount of traffic,-1,Very Little,A Lot,direction,1457,,,,,2022-06-06 20:48:23,16595
5e83abb4e0a2e40fd565226d,ma_choice_v4_pilot4,5e83abb4e0a2e40fd565226d,5,Quality of kitchen,26,,,wad_att_rating,7989,,,,,2022-06-06 20:48:25,16596
5e0571b7e297d5fa932cf415,ma_choice_v4_pilot4,5e0571b7e297d5fa932cf415,6,Quality of heat/AC system,100,,,wad_att_rating,4256,,,,,2022-06-06 20:48:26,16597
629e202465d7385d50c7287b,ma_choice_v4_pilot4,629e202465d7385d50c7287b,4,Size of yard,-1,600 square feet,0 square feet,direction,3499,,,,,2022-06-06 20:48:27,16598
AdamDenomme,ma_choice_v4_pilot4,629e4c42f23fa4850db5e7e8,6,Quality of heat/AC system,-1,Very Good,Very Bad,direction,1449,,,,,2022-06-06 20:48:27,16599
5e83abb4e0a2e40fd565226d,ma_choice_v4_pilot4,5e83abb4e0a2e40fd565226d,0,Closeness to parks,1,,,wad_att_rating,4645,,,,,2022-06-06 20:48:29,16600
AdamDenomme,ma_choice_v4_pilot4,629e4c42f23fa4850db5e7e8,2,Reputation of closest school,-1,Very Good,Very Bad,direction,1033,,,,,2022-06-06 20:48:30,16601
5e0571b7e297d5fa932cf415,ma_choice_v4_pilot4,5e0571b7e297d5fa932cf415,1,Noise pollution,11,,,wad_att_rating,5263,,,,,2022-06-06 20:48:31,16602
629e202465d7385d50c7287b,ma_choice_v4_pilot4,629e202465d7385d50c7287b,5,Quality of kitchen,-1,Very Good,Very Bad,direction,2291,,,,,2022-06-06 20:48:32,16603
5e83abb4e0a2e40fd565226d,ma_choice_v4_pilot4,5e83abb4e0a2e40fd565226d,7,Amount of traffic,100,,,wad_att_rating,2838,,,,,2022-06-06 20:48:32,16604
AdamDenomme,ma_choice_v4_pilot4,629e4c42f23fa4850db5e7e8,8,Size of home,-1,1800 square feet,600 square feet,direction,1075,,,,,2022-06-06 20:48:35,16605
5e0571b7e297d5fa932cf415,ma_choice_v4_pilot4,5e0571b7e297d5fa932cf415,2,Reputation of closest school,0,,,wad_att_rating,4114,,,,,2022-06-06 20:48:35,16606
629e202465d7385d50c7287b,ma_choice_v4_pilot4,629e202465d7385d50c7287b,3,Year building was built,-1,2020,1985,direction,3615,,,,,2022-06-06 20:48:39,16607
5e0571b7e297d5fa932cf415,ma_choice_v4_pilot4,5e0571b7e297d5fa932cf415,7,Amount of traffic,5,,,wad_att_rating,4594,,,,,2022-06-06 20:48:40,16608
AdamDenomme,ma_choice_v4_pilot4,629e4c42f23fa4850db5e7e8,4,Size of yard,-1,600 square feet,0 square feet,direction,1187,,,,,2022-06-06 20:48:40,16609
629e202465d7385d50c7287b,ma_choice_v4_pilot4,629e202465d7385d50c7287b,6,Quality of heat/AC system,-1,Very Good,Very Bad,direction,1533,,,,,2022-06-06 20:48:43,16610
AdamDenomme,ma_choice_v4_pilot4,629e4c42f23fa4850db5e7e8,5,Quality of kitchen,-1,Very Good,Very Bad,direction,897,,,,,2022-06-06 20:48:44,16611
5e0571b7e297d5fa932cf415,ma_choice_v4_pilot4,5e0571b7e297d5fa932cf415,3,Year building was built,0,,,wad_att_rating,6311,,,,,2022-06-06 20:48:46,16612
5e83abb4e0a2e40fd565226d,ma_choice_v4_pilot4,5e83abb4e0a2e40fd565226d,0,Noise pollution,1,,,lex_att_rating,4927,,,,,2022-06-06 20:48:50,16613
629e202465d7385d50c7287b,ma_choice_v4_pilot4,629e202465d7385d50c7287b,1,Noise pollution,-1,Very Low,Very High,direction,2692,,,,,2022-06-06 20:48:51,16614
5e0571b7e297d5fa932cf415,ma_choice_v4_pilot4,5e0571b7e297d5fa932cf415,5,Quality of kitchen,45,,,wad_att_rating,5640,,,,,2022-06-06 20:48:52,16615
629e202465d7385d50c7287b,ma_choice_v4_pilot4,629e202465d7385d50c7287b,0,Closeness to parks,-1,10 min away,30 min away,direction,2312,,,,,2022-06-06 20:48:57,16616
5e0571b7e297d5fa932cf415,ma_choice_v4_pilot4,5e0571b7e297d5fa932cf415,0,Quality of heat/AC system,1,,,lex_att_rating,3587,,,,,2022-06-06 20:48:59,16617
628bc0d63d16d399b19e1120,ma_choice_v4_pilot4,628bc0d63d16d399b19e1120,4,Size of yard,-1,600 square feet,0 square feet,direction,2362,,,,,2022-06-06 20:49:01,16618
629e202465d7385d50c7287b,ma_choice_v4_pilot4,629e202465d7385d50c7287b,8,Size of home,-1,1800 square feet,600 square feet,direction,1510,,,,,2022-06-06 20:49:01,16619
629e202465d7385d50c7287b,ma_choice_v4_pilot4,629e202465d7385d50c7287b,7,Amount of traffic,-1,Very Little,A Lot,direction,1937,,,,,2022-06-06 20:49:06,16620
628bc0d63d16d399b19e1120,ma_choice_v4_pilot4,628bc0d63d16d399b19e1120,7,Amount of traffic,-1,A Little,A Lot,direction,2745,,,,,2022-06-06 20:49:07,16621
629e202465d7385d50c7287b,ma_choice_v4_pilot4,629e202465d7385d50c7287b,2,Reputation of closest school,-1,Very Good,Very Bad,direction,2717,,,,,2022-06-06 20:49:12,16622
628bc0d63d16d399b19e1120,ma_choice_v4_pilot4,628bc0d63d16d399b19e1120,0,Closeness to parks,-1,10 min away,30 min away,direction,2596,,,,,2022-06-06 20:49:13,16623
628bc0d63d16d399b19e1120,ma_choice_v4_pilot4,628bc0d63d16d399b19e1120,2,Reputation of closest school,-1,Very Good,Very Bad,direction,1646,,,,,2022-06-06 20:49:18,16624
628bc0d63d16d399b19e1120,ma_choice_v4_pilot4,628bc0d63d16d399b19e1120,8,Size of home,-1,1800 square feet,600 square feet,direction,2663,,,,,2022-06-06 20:49:26,16625
628bc0d63d16d399b19e1120,ma_choice_v4_pilot4,628bc0d63d16d399b19e1120,6,Quality of heat/AC system,-1,Good,Bad,direction,2579,,,,,2022-06-06 20:49:32,16626
628bc0d63d16d399b19e1120,ma_choice_v4_pilot4,628bc0d63d16d399b19e1120,5,Quality of kitchen,-1,Very Good,Very Bad,direction,1529,,,,,2022-06-06 20:49:36,16627
628bc0d63d16d399b19e1120,ma_choice_v4_pilot4,628bc0d63d16d399b19e1120,3,Year building was built,-1,2020,1985,direction,2595,,,,,2022-06-06 20:49:43,16628
628bc0d63d16d399b19e1120,ma_choice_v4_pilot4,628bc0d63d16d399b19e1120,1,Noise pollution,-1,Very Low,Very High,direction,1713,,,,,2022-06-06 20:49:48,16629
5a4ffdf876d1c60001aa945a,ma_choice_v4_pilot4,5a4ffdf876d1c60001aa945a,0,Quality of heat/AC system,1,,,lex_att_rating,5102,,,,,2022-06-06 20:51:19,16630
5a4ffdf876d1c60001aa945a,ma_choice_v4_pilot4,5a4ffdf876d1c60001aa945a,0,Quality of kitchen,1,,,ew_att_rating,39311,,,,,2022-06-06 20:52:31,16631
5a4ffdf876d1c60001aa945a,ma_choice_v4_pilot4,5a4ffdf876d1c60001aa945a,0,Size of yard,1,,,ew_att_rating,39311,,,,,2022-06-06 20:52:31,16632
5a4ffdf876d1c60001aa945a,ma_choice_v4_pilot4,5a4ffdf876d1c60001aa945a,0,Reputation of closest school,1,,,ew_att_rating,39311,,,,,2022-06-06 20:52:31,16633
5a4ffdf876d1c60001aa945a,ma_choice_v4_pilot4,5a4ffdf876d1c60001aa945a,0,Quality of heat/AC system,1,,,ew_att_rating,39311,,,,,2022-06-06 20:52:31,16634
5a4ffdf876d1c60001aa945a,ma_choice_v4_pilot4,5a4ffdf876d1c60001aa945a,0,Closeness to parks,24,,,wad_att_rating,3845,,,,,2022-06-06 20:52:46,16635
5a4ffdf876d1c60001aa945a,ma_choice_v4_pilot4,5a4ffdf876d1c60001aa945a,8,Size of home,35,,,wad_att_rating,6215,,,,,2022-06-06 20:52:52,16636
5a4ffdf876d1c60001aa945a,ma_choice_v4_pilot4,5a4ffdf876d1c60001aa945a,1,Noise pollution,12,,,wad_att_rating,10512,,,,,2022-06-06 20:53:03,16637
5a4ffdf876d1c60001aa945a,ma_choice_v4_pilot4,5a4ffdf876d1c60001aa945a,3,Year building was built,0,,,wad_att_rating,1990,,,,,2022-06-06 20:53:05,16638
5a4ffdf876d1c60001aa945a,ma_choice_v4_pilot4,5a4ffdf876d1c60001aa945a,5,Quality of kitchen,68,,,wad_att_rating,2627,,,,,2022-06-06 20:53:07,16639
5a4ffdf876d1c60001aa945a,ma_choice_v4_pilot4,5a4ffdf876d1c60001aa945a,2,Reputation of closest school,30,,,wad_att_rating,2087,,,,,2022-06-06 20:53:09,16640
5a4ffdf876d1c60001aa945a,ma_choice_v4_pilot4,5a4ffdf876d1c60001aa945a,4,Size of yard,51,,,wad_att_rating,2539,,,,,2022-06-06 20:53:12,16641
5a4ffdf876d1c60001aa945a,ma_choice_v4_pilot4,5a4ffdf876d1c60001aa945a,7,Amount of traffic,10,,,wad_att_rating,2020,,,,,2022-06-06 20:53:14,16642
5a4ffdf876d1c60001aa945a,ma_choice_v4_pilot4,5a4ffdf876d1c60001aa945a,6,Quality of heat/AC system,76,,,wad_att_rating,4439,,,,,2022-06-06 20:53:18,16643
5e916cb9e502b1498e8fc059,ma_choice_v4_pilot4,5e916cb9e502b1498e8fc059,0,Quality of kitchen,1,,,lex_att_rating,4022,,,,,2022-06-06 20:54:35,16644
5e916cb9e502b1498e8fc059,ma_choice_v4_pilot4,5e916cb9e502b1498e8fc059,4,Size of yard,25,,,wad_att_rating,5958,,,,,2022-06-06 20:54:45,16645
5e916cb9e502b1498e8fc059,ma_choice_v4_pilot4,5e916cb9e502b1498e8fc059,3,Year building was built,50,,,wad_att_rating,6414,,,,,2022-06-06 20:54:51,16646
5e916cb9e502b1498e8fc059,ma_choice_v4_pilot4,5e916cb9e502b1498e8fc059,8,Size of home,50,,,wad_att_rating,4198,,,,,2022-06-06 20:54:56,16647
5e916cb9e502b1498e8fc059,ma_choice_v4_pilot4,5e916cb9e502b1498e8fc059,0,Closeness to parks,0,,,wad_att_rating,5094,,,,,2022-06-06 20:55:01,16648
5e916cb9e502b1498e8fc059,ma_choice_v4_pilot4,5e916cb9e502b1498e8fc059,5,Quality of kitchen,88,,,wad_att_rating,10663,,,,,2022-06-06 20:55:11,16649
5e916cb9e502b1498e8fc059,ma_choice_v4_pilot4,5e916cb9e502b1498e8fc059,1,Noise pollution,50,,,wad_att_rating,4486,,,,,2022-06-06 20:55:16,16650
5e916cb9e502b1498e8fc059,ma_choice_v4_pilot4,5e916cb9e502b1498e8fc059,2,Reputation of closest school,0,,,wad_att_rating,5982,,,,,2022-06-06 20:55:22,16651
5e916cb9e502b1498e8fc059,ma_choice_v4_pilot4,5e916cb9e502b1498e8fc059,7,Amount of traffic,49,,,wad_att_rating,4990,,,,,2022-06-06 20:55:27,16652
5e916cb9e502b1498e8fc059,ma_choice_v4_pilot4,5e916cb9e502b1498e8fc059,6,Quality of heat/AC system,87,,,wad_att_rating,4150,,,,,2022-06-06 20:55:31,16653
56f0393f3f71990005d0e66d,ma_choice_v4_pilot4,56f0393f3f71990005d0e66d,0,Size of home,1,,,lex_att_rating,8000,,,,,2022-06-06 20:55:42,16654
56f0393f3f71990005d0e66d,ma_choice_v4_pilot4,56f0393f3f71990005d0e66d,2,Reputation of closest school,86,,,wad_att_rating,6182,,,,,2022-06-06 20:55:52,16655
5e916cb9e502b1498e8fc059,ma_choice_v4_pilot4,5e916cb9e502b1498e8fc059,0,Amount of traffic,1,,,ew_att_rating,17484,,,,,2022-06-06 20:55:58,16656
5e916cb9e502b1498e8fc059,ma_choice_v4_pilot4,5e916cb9e502b1498e8fc059,0,Quality of heat/AC system,1,,,ew_att_rating,17484,,,,,2022-06-06 20:55:58,16657
5e916cb9e502b1498e8fc059,ma_choice_v4_pilot4,5e916cb9e502b1498e8fc059,0,Quality of kitchen,1,,,ew_att_rating,17484,,,,,2022-06-06 20:55:58,16658
5e916cb9e502b1498e8fc059,ma_choice_v4_pilot4,5e916cb9e502b1498e8fc059,0,Size of yard,1,,,ew_att_rating,17484,,,,,2022-06-06 20:55:58,16659
5e916cb9e502b1498e8fc059,ma_choice_v4_pilot4,5e916cb9e502b1498e8fc059,0,Size of home,1,,,ew_att_rating,17484,,,,,2022-06-06 20:55:58,16660
56f0393f3f71990005d0e66d,ma_choice_v4_pilot4,56f0393f3f71990005d0e66d,5,Quality of kitchen,51,,,wad_att_rating,6401,,,,,2022-06-06 20:55:59,16661
56f0393f3f71990005d0e66d,ma_choice_v4_pilot4,56f0393f3f71990005d0e66d,8,Size of home,89,,,wad_att_rating,3756,,,,,2022-06-06 20:56:02,16662
56f0393f3f71990005d0e66d,ma_choice_v4_pilot4,56f0393f3f71990005d0e66d,1,Noise pollution,50,,,wad_att_rating,5844,,,,,2022-06-06 20:56:08,16663
56f0393f3f71990005d0e66d,ma_choice_v4_pilot4,56f0393f3f71990005d0e66d,7,Amount of traffic,50,,,wad_att_rating,1706,,,,,2022-06-06 20:56:10,16664
56f0393f3f71990005d0e66d,ma_choice_v4_pilot4,56f0393f3f71990005d0e66d,0,Closeness to parks,26,,,wad_att_rating,3059,,,,,2022-06-06 20:56:13,16665
56f0393f3f71990005d0e66d,ma_choice_v4_pilot4,56f0393f3f71990005d0e66d,3,Year building was built,35,,,wad_att_rating,3466,,,,,2022-06-06 20:56:16,16666
56f0393f3f71990005d0e66d,ma_choice_v4_pilot4,56f0393f3f71990005d0e66d,6,Quality of heat/AC system,75,,,wad_att_rating,4775,,,,,2022-06-06 20:56:21,16667
56f0393f3f71990005d0e66d,ma_choice_v4_pilot4,56f0393f3f71990005d0e66d,4,Size of yard,63,,,wad_att_rating,2761,,,,,2022-06-06 20:56:24,16668
56f0393f3f71990005d0e66d,ma_choice_v4_pilot4,56f0393f3f71990005d0e66d,0,Size of home,1,,,ew_att_rating,14363,,,,,2022-06-06 20:56:41,16669
5e0571b7e297d5fa932cf415,ma_choice_v4_pilot4,5e0571b7e297d5fa932cf415,5,Quality of kitchen,-1,Very Good,Very Bad,direction,2351,,,,,2022-06-06 20:57:48,16670
56f0393f3f71990005d0e66d,ma_choice_v4_pilot4,56f0393f3f71990005d0e66d,6,Quality of heat/AC system,-1,Very Good,Very Bad,direction,3011,,,,,2022-06-06 20:57:51,16671
58be2fc3bfc0f4000179f3c5,ma_choice_v4_pilot4,58be2fc3bfc0f4000179f3c5,0,Closeness to parks,1,,,ew_att_rating,20408,,,,,2022-06-06 20:57:55,16672
58be2fc3bfc0f4000179f3c5,ma_choice_v4_pilot4,58be2fc3bfc0f4000179f3c5,0,Quality of heat/AC system,1,,,ew_att_rating,20408,,,,,2022-06-06 20:57:55,16673
58be2fc3bfc0f4000179f3c5,ma_choice_v4_pilot4,58be2fc3bfc0f4000179f3c5,0,Quality of kitchen,1,,,ew_att_rating,20408,,,,,2022-06-06 20:57:55,16674
5e0571b7e297d5fa932cf415,ma_choice_v4_pilot4,5e0571b7e297d5fa932cf415,1,Noise pollution,-1,Low,Very High,direction,2908,,,,,2022-06-06 20:57:57,16675
56f0393f3f71990005d0e66d,ma_choice_v4_pilot4,56f0393f3f71990005d0e66d,3,Year building was built,-1,2020,1950,direction,2095,,,,,2022-06-06 20:57:59,16676
5e0571b7e297d5fa932cf415,ma_choice_v4_pilot4,5e0571b7e297d5fa932cf415,0,Closeness to parks,-1,10 min away,30 min away,direction,2004,,,,,2022-06-06 20:58:04,16677
58be2fc3bfc0f4000179f3c5,ma_choice_v4_pilot4,58be2fc3bfc0f4000179f3c5,8,Size of home,0,,,wad_att_rating,6654,,,,,2022-06-06 20:58:06,16678
56f0393f3f71990005d0e66d,ma_choice_v4_pilot4,56f0393f3f71990005d0e66d,1,Noise pollution,-1,Very Low,Very High,direction,1807,,,,,2022-06-06 20:58:06,16679
58be2fc3bfc0f4000179f3c5,ma_choice_v4_pilot4,58be2fc3bfc0f4000179f3c5,2,Reputation of closest school,0,,,wad_att_rating,3233,,,,,2022-06-06 20:58:09,16680
5e0571b7e297d5fa932cf415,ma_choice_v4_pilot4,5e0571b7e297d5fa932cf415,8,Size of home,-1,1800 square feet,600 square feet,direction,1724,,,,,2022-06-06 20:58:11,16681
58be2fc3bfc0f4000179f3c5,ma_choice_v4_pilot4,58be2fc3bfc0f4000179f3c5,4,Size of yard,17,,,wad_att_rating,4266,,,,,2022-06-06 20:58:13,16682
56f0393f3f71990005d0e66d,ma_choice_v4_pilot4,56f0393f3f71990005d0e66d,4,Size of yard,-1,600 square feet,0 square feet,direction,2969,,,,,2022-06-06 20:58:13,16683
58be2fc3bfc0f4000179f3c5,ma_choice_v4_pilot4,58be2fc3bfc0f4000179f3c5,3,Year building was built,7,,,wad_att_rating,3477,,,,,2022-06-06 20:58:17,16684
5e0571b7e297d5fa932cf415,ma_choice_v4_pilot4,5e0571b7e297d5fa932cf415,6,Quality of heat/AC system,-1,Very Good,Very Bad,direction,1575,,,,,2022-06-06 20:58:18,16685
58be2fc3bfc0f4000179f3c5,ma_choice_v4_pilot4,58be2fc3bfc0f4000179f3c5,7,Amount of traffic,0,,,wad_att_rating,2719,,,,,2022-06-06 20:58:19,16686
56f0393f3f71990005d0e66d,ma_choice_v4_pilot4,56f0393f3f71990005d0e66d,5,Quality of kitchen,-1,Very Good,Very Bad,direction,4089,,,,,2022-06-06 20:58:20,16687
58be2fc3bfc0f4000179f3c5,ma_choice_v4_pilot4,58be2fc3bfc0f4000179f3c5,5,Quality of kitchen,51,,,wad_att_rating,3292,,,,,2022-06-06 20:58:23,16688
58be2fc3bfc0f4000179f3c5,ma_choice_v4_pilot4,58be2fc3bfc0f4000179f3c5,1,Noise pollution,0,,,wad_att_rating,3015,,,,,2022-06-06 20:58:26,16689
56f0393f3f71990005d0e66d,ma_choice_v4_pilot4,56f0393f3f71990005d0e66d,8,Size of home,-1,1800 square feet,600 square feet,direction,2270,,,,,2022-06-06 20:58:26,16690
58be2fc3bfc0f4000179f3c5,ma_choice_v4_pilot4,58be2fc3bfc0f4000179f3c5,6,Quality of heat/AC system,49,,,wad_att_rating,3233,,,,,2022-06-06 20:58:29,16691
58be2fc3bfc0f4000179f3c5,ma_choice_v4_pilot4,58be2fc3bfc0f4000179f3c5,0,Closeness to parks,92,,,wad_att_rating,3728,,,,,2022-06-06 20:58:33,16692
5e0571b7e297d5fa932cf415,ma_choice_v4_pilot4,5e0571b7e297d5fa932cf415,4,Size of yard,-1,300 square feet,0 square feet,direction,1918,,,,,2022-06-06 20:58:33,16693
58be2fc3bfc0f4000179f3c5,ma_choice_v4_pilot4,58be2fc3bfc0f4000179f3c5,0,Closeness to parks,1,,,lex_att_rating,2747,,,,,2022-06-06 20:58:39,16694
5e0571b7e297d5fa932cf415,ma_choice_v4_pilot4,5e0571b7e297d5fa932cf415,2,Reputation of closest school,-1,Very Good,Very Bad,direction,1569,,,,,2022-06-06 20:58:40,16695
56f0393f3f71990005d0e66d,ma_choice_v4_pilot4,56f0393f3f71990005d0e66d,0,Closeness to parks,-1,10 min away,30 min away,direction,3512,,,,,2022-06-06 20:58:43,16696
56f0393f3f71990005d0e66d,ma_choice_v4_pilot4,56f0393f3f71990005d0e66d,2,Reputation of closest school,-1,Very Good,Very Bad,direction,1577,,,,,2022-06-06 20:58:50,16697
56f0393f3f71990005d0e66d,ma_choice_v4_pilot4,56f0393f3f71990005d0e66d,7,Amount of traffic,-1,Very Little,A Lot,direction,2484,,,,,2022-06-06 20:58:56,16698
5e0571b7e297d5fa932cf415,ma_choice_v4_pilot4,5e0571b7e297d5fa932cf415,7,Amount of traffic,-1,Very Little,A Lot,direction,11229,,,,,2022-06-06 20:58:57,16699
5e0571b7e297d5fa932cf415,ma_choice_v4_pilot4,5e0571b7e297d5fa932cf415,3,Year building was built,-1,2020,1985,direction,1732,,,,,2022-06-06 20:59:06,16700
5a4ffdf876d1c60001aa945a,ma_choice_v4_pilot4,5a4ffdf876d1c60001aa945a,6,Quality of heat/AC system,-1,Very Good,Very Bad,direction,3194,,,,,2022-06-06 20:59:28,16701
5a4ffdf876d1c60001aa945a,ma_choice_v4_pilot4,5a4ffdf876d1c60001aa945a,2,Reputation of closest school,-1,Very Good,Very Bad,direction,1402,,,,,2022-06-06 20:59:32,16702
58be2fc3bfc0f4000179f3c5,ma_choice_v4_pilot4,58be2fc3bfc0f4000179f3c5,1,Noise pollution,-1,Very Low,Very High,direction,6831,,,,,2022-06-06 20:59:32,16703
58be2fc3bfc0f4000179f3c5,ma_choice_v4_pilot4,58be2fc3bfc0f4000179f3c5,8,Size of home,-1,1800 square feet,600 square feet,direction,2894,,,,,2022-06-06 20:59:40,16704
5a4ffdf876d1c60001aa945a,ma_choice_v4_pilot4,5a4ffdf876d1c60001aa945a,0,Closeness to parks,-1,15 min away,30 min away,direction,2428,,,,,2022-06-06 20:59:45,16705
58be2fc3bfc0f4000179f3c5,ma_choice_v4_pilot4,58be2fc3bfc0f4000179f3c5,7,Amount of traffic,-1,Very Little,A Lot,direction,2518,,,,,2022-06-06 20:59:46,16706
5a4ffdf876d1c60001aa945a,ma_choice_v4_pilot4,5a4ffdf876d1c60001aa945a,5,Quality of kitchen,-1,Very Good,Very Bad,direction,3514,,,,,2022-06-06 20:59:51,16707
58be2fc3bfc0f4000179f3c5,ma_choice_v4_pilot4,58be2fc3bfc0f4000179f3c5,5,Quality of kitchen,-1,Very Good,Very Bad,direction,2605,,,,,2022-06-06 20:59:52,16708
58be2fc3bfc0f4000179f3c5,ma_choice_v4_pilot4,58be2fc3bfc0f4000179f3c5,6,Quality of heat/AC system,-1,Very Good,Very Bad,direction,1883,,,,,2022-06-06 20:59:57,16709
5a4ffdf876d1c60001aa945a,ma_choice_v4_pilot4,5a4ffdf876d1c60001aa945a,7,Amount of traffic,-1,A Little,A Lot,direction,1343,,,,,2022-06-06 20:59:58,16710
58be2fc3bfc0f4000179f3c5,ma_choice_v4_pilot4,58be2fc3bfc0f4000179f3c5,4,Size of yard,-1,600 square feet,0 square feet,direction,2148,,,,,2022-06-06 21:00:03,16711
5a4ffdf876d1c60001aa945a,ma_choice_v4_pilot4,5a4ffdf876d1c60001aa945a,4,Size of yard,-1,600 square feet,0 square feet,direction,2627,,,,,2022-06-06 21:00:04,16712
629a5e68574432c847ac20c8,ma_choice_v4_pilot4,629a5e68574432c847ac20c8,0,Size of home,1,,,ew_att_rating,9924,,,,,2022-06-06 21:00:11,16713
629a5e68574432c847ac20c8,ma_choice_v4_pilot4,629a5e68574432c847ac20c8,0,Reputation of closest school,1,,,ew_att_rating,9924,,,,,2022-06-06 21:00:11,16714
629a5e68574432c847ac20c8,ma_choice_v4_pilot4,629a5e68574432c847ac20c8,0,Closeness to parks,1,,,ew_att_rating,9924,,,,,2022-06-06 21:00:11,16715
629a5e68574432c847ac20c8,ma_choice_v4_pilot4,629a5e68574432c847ac20c8,0,Quality of kitchen,1,,,ew_att_rating,9924,,,,,2022-06-06 21:00:11,16716
629a5e68574432c847ac20c8,ma_choice_v4_pilot4,629a5e68574432c847ac20c8,0,Quality of heat/AC system,1,,,ew_att_rating,9924,,,,,2022-06-06 21:00:11,16717
5a4ffdf876d1c60001aa945a,ma_choice_v4_pilot4,5a4ffdf876d1c60001aa945a,3,Year building was built,-1,1985,1950,direction,5950,,,,,2022-06-06 21:00:14,16718
5a4ffdf876d1c60001aa945a,ma_choice_v4_pilot4,5a4ffdf876d1c60001aa945a,1,Noise pollution,-1,Moderate,Very High,direction,2102,,,,,2022-06-06 21:00:24,16719
629a5e68574432c847ac20c8,ma_choice_v4_pilot4,629a5e68574432c847ac20c8,0,Closeness to parks,45,,,wad_att_rating,8435,,,,,2022-06-06 21:00:24,16720
629a5e68574432c847ac20c8,ma_choice_v4_pilot4,629a5e68574432c847ac20c8,6,Quality of heat/AC system,62,,,wad_att_rating,5861,,,,,2022-06-06 21:00:30,16721
5a4ffdf876d1c60001aa945a,ma_choice_v4_pilot4,5a4ffdf876d1c60001aa945a,8,Size of home,-1,1200 square feet,600 square feet,direction,1731,,,,,2022-06-06 21:00:30,16722
58be2fc3bfc0f4000179f3c5,ma_choice_v4_pilot4,58be2fc3bfc0f4000179f3c5,3,Year building was built,-1,2020,1985,direction,3164,,,,,2022-06-06 21:00:33,16723
629a5e68574432c847ac20c8,ma_choice_v4_pilot4,629a5e68574432c847ac20c8,3,Year building was built,3,,,wad_att_rating,4835,,,,,2022-06-06 21:00:35,16724
629a5e68574432c847ac20c8,ma_choice_v4_pilot4,629a5e68574432c847ac20c8,1,Noise pollution,5,,,wad_att_rating,3832,,,,,2022-06-06 21:00:39,16725
629a5e68574432c847ac20c8,ma_choice_v4_pilot4,629a5e68574432c847ac20c8,7,Amount of traffic,7,,,wad_att_rating,3041,,,,,2022-06-06 21:00:42,16726
58be2fc3bfc0f4000179f3c5,ma_choice_v4_pilot4,58be2fc3bfc0f4000179f3c5,0,Closeness to parks,-1,10 min away,30 min away,direction,2182,,,,,2022-06-06 21:00:42,16727
629a5e68574432c847ac20c8,ma_choice_v4_pilot4,629a5e68574432c847ac20c8,2,Reputation of closest school,87,,,wad_att_rating,5758,,,,,2022-06-06 21:00:47,16728
58be2fc3bfc0f4000179f3c5,ma_choice_v4_pilot4,58be2fc3bfc0f4000179f3c5,2,Reputation of closest school,-1,Very Good,Very Bad,direction,1798,,,,,2022-06-06 21:00:51,16729
629a5e68574432c847ac20c8,ma_choice_v4_pilot4,629a5e68574432c847ac20c8,4,Size of yard,25,,,wad_att_rating,3832,,,,,2022-06-06 21:00:51,16730
629a5e68574432c847ac20c8,ma_choice_v4_pilot4,629a5e68574432c847ac20c8,8,Size of home,69,,,wad_att_rating,6923,,,,,2022-06-06 21:00:58,16731
629a5e68574432c847ac20c8,ma_choice_v4_pilot4,629a5e68574432c847ac20c8,5,Quality of kitchen,87,,,wad_att_rating,4043,,,,,2022-06-06 21:01:02,16732
629a5e68574432c847ac20c8,ma_choice_v4_pilot4,629a5e68574432c847ac20c8,0,Reputation of closest school,1,,,lex_att_rating,1783,,,,,2022-06-06 21:01:09,16733
5e83abb4e0a2e40fd565226d,ma_choice_v4_pilot4,5e83abb4e0a2e40fd565226d,0,Closeness to parks,-1,20 min away,30 min away,direction,6656,,,,,2022-06-06 21:01:42,16734
5e83abb4e0a2e40fd565226d,ma_choice_v4_pilot4,5e83abb4e0a2e40fd565226d,7,Amount of traffic,-1,Very Little,A Lot,direction,4059,,,,,2022-06-06 21:01:51,16735
5e83abb4e0a2e40fd565226d,ma_choice_v4_pilot4,5e83abb4e0a2e40fd565226d,1,Noise pollution,-1,Very Low,Very High,direction,2987,,,,,2022-06-06 21:01:57,16736
5e83abb4e0a2e40fd565226d,ma_choice_v4_pilot4,5e83abb4e0a2e40fd565226d,8,Size of home,-1,1200 square feet,600 square feet,direction,5540,,,,,2022-06-06 21:02:07,16737
5e83abb4e0a2e40fd565226d,ma_choice_v4_pilot4,5e83abb4e0a2e40fd565226d,6,Quality of heat/AC system,-1,Very Good,Very Bad,direction,2504,,,,,2022-06-06 21:02:20,16738
5e83abb4e0a2e40fd565226d,ma_choice_v4_pilot4,5e83abb4e0a2e40fd565226d,4,Size of yard,-1,600 square feet,0 square feet,direction,2385,,,,,2022-06-06 21:02:26,16739
5e83abb4e0a2e40fd565226d,ma_choice_v4_pilot4,5e83abb4e0a2e40fd565226d,3,Year building was built,-1,1985,2020,direction,2363,,,,,2022-06-06 21:02:32,16740
5e83abb4e0a2e40fd565226d,ma_choice_v4_pilot4,5e83abb4e0a2e40fd565226d,5,Quality of kitchen,-1,Very Good,Very Bad,direction,2849,,,,,2022-06-06 21:02:37,16741
5e83abb4e0a2e40fd565226d,ma_choice_v4_pilot4,5e83abb4e0a2e40fd565226d,2,Reputation of closest school,-1,Very Good,Very Bad,direction,2258,,,,,2022-06-06 21:02:49,16742
5e782c5d99df853a6f1315f4,ma_choice_v4_pilot4,5e782c5d99df853a6f1315f4,1,Noise pollution,49,,,wad_att_rating,11216,,,,,2022-06-06 21:04:11,16743
5e782c5d99df853a6f1315f4,ma_choice_v4_pilot4,5e782c5d99df853a6f1315f4,7,Amount of traffic,49,,,wad_att_rating,6088,,,,,2022-06-06 21:04:17,16744
5e782c5d99df853a6f1315f4,ma_choice_v4_pilot4,5e782c5d99df853a6f1315f4,6,Quality of heat/AC system,37,,,wad_att_rating,4356,,,,,2022-06-06 21:04:22,16745
5e782c5d99df853a6f1315f4,ma_choice_v4_pilot4,5e782c5d99df853a6f1315f4,5,Quality of kitchen,37,,,wad_att_rating,5898,,,,,2022-06-06 21:04:28,16746
5e782c5d99df853a6f1315f4,ma_choice_v4_pilot4,5e782c5d99df853a6f1315f4,8,Size of home,75,,,wad_att_rating,5738,,,,,2022-06-06 21:04:33,16747
5e782c5d99df853a6f1315f4,ma_choice_v4_pilot4,5e782c5d99df853a6f1315f4,4,Size of yard,75,,,wad_att_rating,3651,,,,,2022-06-06 21:04:37,16748
5e782c5d99df853a6f1315f4,ma_choice_v4_pilot4,5e782c5d99df853a6f1315f4,0,Closeness to parks,0,,,wad_att_rating,4128,,,,,2022-06-06 21:04:41,16749
5e782c5d99df853a6f1315f4,ma_choice_v4_pilot4,5e782c5d99df853a6f1315f4,3,Year building was built,87,,,wad_att_rating,5928,,,,,2022-06-06 21:04:47,16750
5e782c5d99df853a6f1315f4,ma_choice_v4_pilot4,5e782c5d99df853a6f1315f4,2,Reputation of closest school,12,,,wad_att_rating,5085,,,,,2022-06-06 21:04:52,16751
5e782c5d99df853a6f1315f4,ma_choice_v4_pilot4,5e782c5d99df853a6f1315f4,0,Quality of heat/AC system,1,,,ew_att_rating,17874,,,,,2022-06-06 21:05:20,16752
5e782c5d99df853a6f1315f4,ma_choice_v4_pilot4,5e782c5d99df853a6f1315f4,0,Noise pollution,1,,,ew_att_rating,17874,,,,,2022-06-06 21:05:20,16753
5e782c5d99df853a6f1315f4,ma_choice_v4_pilot4,5e782c5d99df853a6f1315f4,0,Year building was built,1,,,ew_att_rating,17874,,,,,2022-06-06 21:05:20,16754
5e782c5d99df853a6f1315f4,ma_choice_v4_pilot4,5e782c5d99df853a6f1315f4,0,Quality of kitchen,1,,,ew_att_rating,17874,,,,,2022-06-06 21:05:20,16755
5e782c5d99df853a6f1315f4,ma_choice_v4_pilot4,5e782c5d99df853a6f1315f4,0,Size of yard,1,,,ew_att_rating,17874,,,,,2022-06-06 21:05:20,16756
5e782c5d99df853a6f1315f4,ma_choice_v4_pilot4,5e782c5d99df853a6f1315f4,0,Size of home,1,,,ew_att_rating,17874,,,,,2022-06-06 21:05:20,16757
5e782c5d99df853a6f1315f4,ma_choice_v4_pilot4,5e782c5d99df853a6f1315f4,0,Size of home,1,,,lex_att_rating,3960,,,,,2022-06-06 21:05:31,16758
629a5e68574432c847ac20c8,ma_choice_v4_pilot4,629a5e68574432c847ac20c8,7,Amount of traffic,-1,A Little,A Lot,direction,2394,,,,,2022-06-06 21:07:06,16759
629a5e68574432c847ac20c8,ma_choice_v4_pilot4,629a5e68574432c847ac20c8,0,Closeness to parks,-1,10 min away,30 min away,direction,1975,,,,,2022-06-06 21:07:10,16760
629a5e68574432c847ac20c8,ma_choice_v4_pilot4,629a5e68574432c847ac20c8,2,Reputation of closest school,-1,Very Good,Very Bad,direction,1760,,,,,2022-06-06 21:07:15,16761
629a5e68574432c847ac20c8,ma_choice_v4_pilot4,629a5e68574432c847ac20c8,4,Size of yard,-1,600 square feet,0 square feet,direction,2469,,,,,2022-06-06 21:07:21,16762
629a5e68574432c847ac20c8,ma_choice_v4_pilot4,629a5e68574432c847ac20c8,1,Noise pollution,-1,Moderate,Very High,direction,2023,,,,,2022-06-06 21:07:32,16763
629a5e68574432c847ac20c8,ma_choice_v4_pilot4,629a5e68574432c847ac20c8,3,Year building was built,-1,1950,2020,direction,2166,,,,,2022-06-06 21:07:40,16764
5f4b283c6e1f3e6ec65c32f6,ma_choice_v4_pilot4,5f4b283c6e1f3e6ec65c32f6,0,Size of home,1,,,ew_att_rating,17990,,,,,2022-06-06 21:07:42,16765
629a5e68574432c847ac20c8,ma_choice_v4_pilot4,629a5e68574432c847ac20c8,6,Quality of heat/AC system,-1,Very Good,Very Bad,direction,1395,,,,,2022-06-06 21:07:44,16766
5f4b283c6e1f3e6ec65c32f6,ma_choice_v4_pilot4,5f4b283c6e1f3e6ec65c32f6,0,Size of home,1,,,lex_att_rating,6277,,,,,2022-06-06 21:07:50,16767
629a5e68574432c847ac20c8,ma_choice_v4_pilot4,629a5e68574432c847ac20c8,8,Size of home,-1,1200 square feet,600 square feet,direction,1850,,,,,2022-06-06 21:07:50,16768
629a5e68574432c847ac20c8,ma_choice_v4_pilot4,629a5e68574432c847ac20c8,5,Quality of kitchen,-1,Very Good,Very Bad,direction,1262,,,,,2022-06-06 21:07:55,16769
5f4b283c6e1f3e6ec65c32f6,ma_choice_v4_pilot4,5f4b283c6e1f3e6ec65c32f6,5,Quality of kitchen,87,,,wad_att_rating,9300,,,,,2022-06-06 21:08:01,16770
5f4b283c6e1f3e6ec65c32f6,ma_choice_v4_pilot4,5f4b283c6e1f3e6ec65c32f6,1,Noise pollution,46,,,wad_att_rating,4558,,,,,2022-06-06 21:08:07,16771
5f4b283c6e1f3e6ec65c32f6,ma_choice_v4_pilot4,5f4b283c6e1f3e6ec65c32f6,4,Size of yard,47,,,wad_att_rating,6312,,,,,2022-06-06 21:08:12,16772
5f4b283c6e1f3e6ec65c32f6,ma_choice_v4_pilot4,5f4b283c6e1f3e6ec65c32f6,2,Reputation of closest school,51,,,wad_att_rating,3866,,,,,2022-06-06 21:08:16,16773
5f4b283c6e1f3e6ec65c32f6,ma_choice_v4_pilot4,5f4b283c6e1f3e6ec65c32f6,8,Size of home,91,,,wad_att_rating,4625,,,,,2022-06-06 21:08:20,16774
5f4b283c6e1f3e6ec65c32f6,ma_choice_v4_pilot4,5f4b283c6e1f3e6ec65c32f6,0,Closeness to parks,49,,,wad_att_rating,4237,,,,,2022-06-06 21:08:25,16775
5f4b283c6e1f3e6ec65c32f6,ma_choice_v4_pilot4,5f4b283c6e1f3e6ec65c32f6,7,Amount of traffic,63,,,wad_att_rating,3678,,,,,2022-06-06 21:08:28,16776
5f4b283c6e1f3e6ec65c32f6,ma_choice_v4_pilot4,5f4b283c6e1f3e6ec65c32f6,6,Quality of heat/AC system,49,,,wad_att_rating,2938,,,,,2022-06-06 21:08:31,16777
5f4b283c6e1f3e6ec65c32f6,ma_choice_v4_pilot4,5f4b283c6e1f3e6ec65c32f6,3,Year building was built,64,,,wad_att_rating,2950,,,,,2022-06-06 21:08:34,16778
5d9d2e421af9ed0011c31894,ma_choice_v4_pilot4,5d9d2e421af9ed0011c31894,0,Reputation of closest school,1,,,lex_att_rating,5510,,,,,2022-06-06 21:08:46,16779
5d9d2e421af9ed0011c31894,ma_choice_v4_pilot4,5d9d2e421af9ed0011c31894,3,Year building was built,0,,,wad_att_rating,6365,,,,,2022-06-06 21:08:56,16780
5d9d2e421af9ed0011c31894,ma_choice_v4_pilot4,5d9d2e421af9ed0011c31894,8,Size of home,63,,,wad_att_rating,8864,,,,,2022-06-06 21:09:05,16781
5d9d2e421af9ed0011c31894,ma_choice_v4_pilot4,5d9d2e421af9ed0011c31894,6,Quality of heat/AC system,0,,,wad_att_rating,3724,,,,,2022-06-06 21:09:09,16782
5d9d2e421af9ed0011c31894,ma_choice_v4_pilot4,5d9d2e421af9ed0011c31894,5,Quality of kitchen,0,,,wad_att_rating,2708,,,,,2022-06-06 21:09:12,16783
5d9d2e421af9ed0011c31894,ma_choice_v4_pilot4,5d9d2e421af9ed0011c31894,4,Size of yard,11,,,wad_att_rating,4091,,,,,2022-06-06 21:09:16,16784
5d9d2e421af9ed0011c31894,ma_choice_v4_pilot4,5d9d2e421af9ed0011c31894,7,Amount of traffic,0,,,wad_att_rating,2951,,,,,2022-06-06 21:09:19,16785
5d9d2e421af9ed0011c31894,ma_choice_v4_pilot4,5d9d2e421af9ed0011c31894,2,Reputation of closest school,100,,,wad_att_rating,4163,,,,,2022-06-06 21:09:23,16786
5d9d2e421af9ed0011c31894,ma_choice_v4_pilot4,5d9d2e421af9ed0011c31894,0,Closeness to parks,0,,,wad_att_rating,3560,,,,,2022-06-06 21:09:27,16787
5d9d2e421af9ed0011c31894,ma_choice_v4_pilot4,5d9d2e421af9ed0011c31894,1,Noise pollution,0,,,wad_att_rating,3040,,,,,2022-06-06 21:09:30,16788
5d9d2e421af9ed0011c31894,ma_choice_v4_pilot4,5d9d2e421af9ed0011c31894,0,Reputation of closest school,1,,,ew_att_rating,8938,,,,,2022-06-06 21:09:50,16789
5f4b283c6e1f3e6ec65c32f6,ma_choice_v4_pilot4,5f4b283c6e1f3e6ec65c32f6,0,Closeness to parks,-1,20 min away,30 min away,direction,4500,,,,,2022-06-06 21:09:59,16790
5f4b283c6e1f3e6ec65c32f6,ma_choice_v4_pilot4,5f4b283c6e1f3e6ec65c32f6,5,Quality of kitchen,-1,Moderate,Very Bad,direction,3496,,,,,2022-06-06 21:10:08,16791
5f4b283c6e1f3e6ec65c32f6,ma_choice_v4_pilot4,5f4b283c6e1f3e6ec65c32f6,3,Year building was built,-1,2020,1950,direction,2561,,,,,2022-06-06 21:10:24,16792
5f4b283c6e1f3e6ec65c32f6,ma_choice_v4_pilot4,5f4b283c6e1f3e6ec65c32f6,2,Reputation of closest school,-1,Moderate,Very Bad,direction,8618,,,,,2022-06-06 21:10:37,16793
5f4b283c6e1f3e6ec65c32f6,ma_choice_v4_pilot4,5f4b283c6e1f3e6ec65c32f6,6,Quality of heat/AC system,-1,Moderate,Very Bad,direction,2443,,,,,2022-06-06 21:10:44,16794
5f4b283c6e1f3e6ec65c32f6,ma_choice_v4_pilot4,5f4b283c6e1f3e6ec65c32f6,8,Size of home,-1,1200 square feet,600 square feet,direction,2668,,,,,2022-06-06 21:10:51,16795
5eb83f00de449a08d23547dd,ma_choice_v4_pilot4,5eb83f00de449a08d23547dd,0,Size of home,1,,,ew_att_rating,13219,,,,,2022-06-06 21:10:56,16796
5eb83f00de449a08d23547dd,ma_choice_v4_pilot4,5eb83f00de449a08d23547dd,0,Quality of kitchen,1,,,ew_att_rating,13219,,,,,2022-06-06 21:10:56,16797
5eb83f00de449a08d23547dd,ma_choice_v4_pilot4,5eb83f00de449a08d23547dd,0,Quality of heat/AC system,1,,,ew_att_rating,13219,,,,,2022-06-06 21:10:56,16798
5f4b283c6e1f3e6ec65c32f6,ma_choice_v4_pilot4,5f4b283c6e1f3e6ec65c32f6,7,Amount of traffic,-1,A Lot,Very Little,direction,3271,,,,,2022-06-06 21:10:59,16799
5eb83f00de449a08d23547dd,ma_choice_v4_pilot4,5eb83f00de449a08d23547dd,1,Noise pollution,0,,,wad_att_rating,3767,,,,,2022-06-06 21:11:07,16800
5f4b283c6e1f3e6ec65c32f6,ma_choice_v4_pilot4,5f4b283c6e1f3e6ec65c32f6,4,Size of yard,-1,600 square feet,0 square feet,direction,2317,,,,,2022-06-06 21:11:11,16801
5eb83f00de449a08d23547dd,ma_choice_v4_pilot4,5eb83f00de449a08d23547dd,6,Quality of heat/AC system,89,,,wad_att_rating,6998,,,,,2022-06-06 21:11:14,16802
5eb83f00de449a08d23547dd,ma_choice_v4_pilot4,5eb83f00de449a08d23547dd,3,Year building was built,0,,,wad_att_rating,2998,,,,,2022-06-06 21:11:17,16803
5f4b283c6e1f3e6ec65c32f6,ma_choice_v4_pilot4,5f4b283c6e1f3e6ec65c32f6,1,Noise pollution,-1,Moderate,Very Low,direction,2784,,,,,2022-06-06 21:11:18,16804
5eb83f00de449a08d23547dd,ma_choice_v4_pilot4,5eb83f00de449a08d23547dd,5,Quality of kitchen,88,,,wad_att_rating,3390,,,,,2022-06-06 21:11:20,16805
5eb83f00de449a08d23547dd,ma_choice_v4_pilot4,5eb83f00de449a08d23547dd,4,Size of yard,0,,,wad_att_rating,2767,,,,,2022-06-06 21:11:23,16806
5eb83f00de449a08d23547dd,ma_choice_v4_pilot4,5eb83f00de449a08d23547dd,2,Reputation of closest school,0,,,wad_att_rating,2431,,,,,2022-06-06 21:11:25,16807
5eb83f00de449a08d23547dd,ma_choice_v4_pilot4,5eb83f00de449a08d23547dd,8,Size of home,88,,,wad_att_rating,3127,,,,,2022-06-06 21:11:28,16808
5eb83f00de449a08d23547dd,ma_choice_v4_pilot4,5eb83f00de449a08d23547dd,0,Closeness to parks,0,,,wad_att_rating,2462,,,,,2022-06-06 21:11:31,16809
5eb83f00de449a08d23547dd,ma_choice_v4_pilot4,5eb83f00de449a08d23547dd,7,Amount of traffic,0,,,wad_att_rating,2230,,,,,2022-06-06 21:11:33,16810
5eb83f00de449a08d23547dd,ma_choice_v4_pilot4,5eb83f00de449a08d23547dd,0,Quality of heat/AC system,1,,,lex_att_rating,3432,,,,,2022-06-06 21:11:42,16811
5d9d2e421af9ed0011c31894,ma_choice_v4_pilot4,5d9d2e421af9ed0011c31894,7,Amount of traffic,-1,Very Little,A Lot,direction,4496,,,,,2022-06-06 21:11:57,16812
5e916cb9e502b1498e8fc059,ma_choice_v4_pilot4,5e916cb9e502b1498e8fc059,2,Reputation of closest school,-1,Good,Very Bad,direction,4487,,,,,2022-06-06 21:11:58,16813
5e916cb9e502b1498e8fc059,ma_choice_v4_pilot4,5e916cb9e502b1498e8fc059,5,Quality of kitchen,-1,Very Good,Very Bad,direction,2823,,,,,2022-06-06 21:12:04,16814
5d9d2e421af9ed0011c31894,ma_choice_v4_pilot4,5d9d2e421af9ed0011c31894,0,Closeness to parks,-1,10 min away,30 min away,direction,2546,,,,,2022-06-06 21:12:05,16815
5d9d2e421af9ed0011c31894,ma_choice_v4_pilot4,5d9d2e421af9ed0011c31894,2,Reputation of closest school,-1,Very Good,Very Bad,direction,2734,,,,,2022-06-06 21:12:12,16816
5e916cb9e502b1498e8fc059,ma_choice_v4_pilot4,5e916cb9e502b1498e8fc059,3,Year building was built,-1,2020,1950,direction,3519,,,,,2022-06-06 21:12:14,16817
5d9d2e421af9ed0011c31894,ma_choice_v4_pilot4,5d9d2e421af9ed0011c31894,8,Size of home,-1,1800 square feet,600 square feet,direction,2134,,,,,2022-06-06 21:12:18,16818
5fb34f4786f1bb65410c1c87,ma_choice_v4_pilot4,5fb34f4786f1bb65410c1c87,5,Quality of kitchen,21,,,wad_att_rating,4781,,,,,2022-06-06 21:12:20,16819
5e916cb9e502b1498e8fc059,ma_choice_v4_pilot4,5e916cb9e502b1498e8fc059,6,Quality of heat/AC system,-1,Very Good,Very Bad,direction,2911,,,,,2022-06-06 21:12:21,16820
5fb34f4786f1bb65410c1c87,ma_choice_v4_pilot4,5fb34f4786f1bb65410c1c87,4,Size of yard,44,,,wad_att_rating,3837,,,,,2022-06-06 21:12:24,16821
5d9d2e421af9ed0011c31894,ma_choice_v4_pilot4,5d9d2e421af9ed0011c31894,1,Noise pollution,-1,Very Low,Very High,direction,1767,,,,,2022-06-06 21:12:24,16822
5fb34f4786f1bb65410c1c87,ma_choice_v4_pilot4,5fb34f4786f1bb65410c1c87,2,Reputation of closest school,12,,,wad_att_rating,3091,,,,,2022-06-06 21:12:27,16823
5fb34f4786f1bb65410c1c87,ma_choice_v4_pilot4,5fb34f4786f1bb65410c1c87,8,Size of home,84,,,wad_att_rating,4498,,,,,2022-06-06 21:12:31,16824
5d9d2e421af9ed0011c31894,ma_choice_v4_pilot4,5d9d2e421af9ed0011c31894,6,Quality of heat/AC system,-1,Very Good,Very Bad,direction,2151,,,,,2022-06-06 21:12:33,16825
5eb83f00de449a08d23547dd,ma_choice_v4_pilot4,5eb83f00de449a08d23547dd,8,Size of home,-1,1800 square feet,600 square feet,direction,3031,,,,,2022-06-06 21:12:35,16826
5e916cb9e502b1498e8fc059,ma_choice_v4_pilot4,5e916cb9e502b1498e8fc059,4,Size of yard,-1,600 square feet,0 square feet,direction,4350,,,,,2022-06-06 21:12:36,16827
5eb83f00de449a08d23547dd,ma_choice_v4_pilot4,5eb83f00de449a08d23547dd,4,Size of yard,-1,600 square feet,0 square feet,direction,2071,,,,,2022-06-06 21:12:42,16828
5e916cb9e502b1498e8fc059,ma_choice_v4_pilot4,5e916cb9e502b1498e8fc059,1,Noise pollution,-1,Very Low,Very High,direction,2455,,,,,2022-06-06 21:12:43,16829
5fb34f4786f1bb65410c1c87,ma_choice_v4_pilot4,5fb34f4786f1bb65410c1c87,7,Amount of traffic,46,,,wad_att_rating,12383,,,,,2022-06-06 21:12:44,16830
5eb83f00de449a08d23547dd,ma_choice_v4_pilot4,5eb83f00de449a08d23547dd,1,Noise pollution,-1,Very Low,Very High,direction,2430,,,,,2022-06-06 21:12:48,16831
5fb34f4786f1bb65410c1c87,ma_choice_v4_pilot4,5fb34f4786f1bb65410c1c87,3,Year building was built,4,,,wad_att_rating,6254,,,,,2022-06-06 21:12:50,16832
5eb83f00de449a08d23547dd,ma_choice_v4_pilot4,5eb83f00de449a08d23547dd,5,Quality of kitchen,-1,Very Good,Very Bad,direction,2039,,,,,2022-06-06 21:12:53,16833
5fb34f4786f1bb65410c1c87,ma_choice_v4_pilot4,5fb34f4786f1bb65410c1c87,6,Quality of heat/AC system,57,,,wad_att_rating,3787,,,,,2022-06-06 21:12:54,16834
5e916cb9e502b1498e8fc059,ma_choice_v4_pilot4,5e916cb9e502b1498e8fc059,7,Amount of traffic,-1,A Moderate Amount,A Lot,direction,6727,,,,,2022-06-06 21:12:54,16835
59fd7b4a728b1b0001ad86fc,ma_choice_v4_pilot4,59fd7b4a728b1b0001ad86fc,6,Quality of heat/AC system,62,,,wad_att_rating,11004,,,,,2022-06-06 21:12:57,16836
5fb34f4786f1bb65410c1c87,ma_choice_v4_pilot4,5fb34f4786f1bb65410c1c87,0,Closeness to parks,29,,,wad_att_rating,3971,,,,,2022-06-06 21:12:58,16837
5eb83f00de449a08d23547dd,ma_choice_v4_pilot4,5eb83f00de449a08d23547dd,7,Amount of traffic,-1,Very Little,A Lot,direction,2175,,,,,2022-06-06 21:12:59,16838
59fd7b4a728b1b0001ad86fc,ma_choice_v4_pilot4,59fd7b4a728b1b0001ad86fc,7,Amount of traffic,25,,,wad_att_rating,3739,,,,,2022-06-06 21:13:00,16839
5e916cb9e502b1498e8fc059,ma_choice_v4_pilot4,5e916cb9e502b1498e8fc059,8,Size of home,-1,1800 square feet,600 square feet,direction,3351,,,,,2022-06-06 21:13:01,16840
5fb34f4786f1bb65410c1c87,ma_choice_v4_pilot4,5fb34f4786f1bb65410c1c87,1,Noise pollution,29,,,wad_att_rating,4566,,,,,2022-06-06 21:13:02,16841
59fd7b4a728b1b0001ad86fc,ma_choice_v4_pilot4,59fd7b4a728b1b0001ad86fc,3,Year building was built,34,,,wad_att_rating,3611,,,,,2022-06-06 21:13:04,16842
5eb83f00de449a08d23547dd,ma_choice_v4_pilot4,5eb83f00de449a08d23547dd,2,Reputation of closest school,-1,Very Good,Very Bad,direction,1879,,,,,2022-06-06 21:13:04,16843
59fd7b4a728b1b0001ad86fc,ma_choice_v4_pilot4,59fd7b4a728b1b0001ad86fc,0,Closeness to parks,48,,,wad_att_rating,3261,,,,,2022-06-06 21:13:07,16844
5eb83f00de449a08d23547dd,ma_choice_v4_pilot4,5eb83f00de449a08d23547dd,6,Quality of heat/AC system,-1,Very Good,Very Bad,direction,2007,,,,,2022-06-06 21:13:09,16845
59fd7b4a728b1b0001ad86fc,ma_choice_v4_pilot4,59fd7b4a728b1b0001ad86fc,8,Size of home,49,,,wad_att_rating,3019,,,,,2022-06-06 21:13:10,16846
5e916cb9e502b1498e8fc059,ma_choice_v4_pilot4,5e916cb9e502b1498e8fc059,0,Closeness to parks,-1,10 min away,30 min away,direction,6799,,,,,2022-06-06 21:13:11,16847
59fd7b4a728b1b0001ad86fc,ma_choice_v4_pilot4,59fd7b4a728b1b0001ad86fc,5,Quality of kitchen,37,,,wad_att_rating,3428,,,,,2022-06-06 21:13:14,16848
5eb83f00de449a08d23547dd,ma_choice_v4_pilot4,5eb83f00de449a08d23547dd,3,Year building was built,-1,1950,1985,direction,3439,,,,,2022-06-06 21:13:15,16849
59fd7b4a728b1b0001ad86fc,ma_choice_v4_pilot4,59fd7b4a728b1b0001ad86fc,1,Noise pollution,11,,,wad_att_rating,3373,,,,,2022-06-06 21:13:17,16850
5fb34f4786f1bb65410c1c87,ma_choice_v4_pilot4,5fb34f4786f1bb65410c1c87,0,Size of home,1,,,lex_att_rating,4362,,,,,2022-06-06 21:13:19,16851
59fd7b4a728b1b0001ad86fc,ma_choice_v4_pilot4,59fd7b4a728b1b0001ad86fc,4,Size of yard,48,,,wad_att_rating,3140,,,,,2022-06-06 21:13:20,16852
5eb83f00de449a08d23547dd,ma_choice_v4_pilot4,5eb83f00de449a08d23547dd,0,Closeness to parks,-1,15 min away,30 min away,direction,2847,,,,,2022-06-06 21:13:23,16853
59fd7b4a728b1b0001ad86fc,ma_choice_v4_pilot4,59fd7b4a728b1b0001ad86fc,2,Reputation of closest school,98,,,wad_att_rating,3902,,,,,2022-06-06 21:13:24,16854
5fb34f4786f1bb65410c1c87,ma_choice_v4_pilot4,5fb34f4786f1bb65410c1c87,0,Size of home,1,,,ew_att_rating,9560,,,,,2022-06-06 21:13:30,16855
5fb34f4786f1bb65410c1c87,ma_choice_v4_pilot4,5fb34f4786f1bb65410c1c87,0,Noise pollution,1,,,ew_att_rating,9560,,,,,2022-06-06 21:13:30,16856
5fb34f4786f1bb65410c1c87,ma_choice_v4_pilot4,5fb34f4786f1bb65410c1c87,0,Quality of heat/AC system,1,,,ew_att_rating,9560,,,,,2022-06-06 21:13:30,16857
5d9d2e421af9ed0011c31894,ma_choice_v4_pilot4,5d9d2e421af9ed0011c31894,5,Quality of kitchen,-1,Very Good,Very Bad,direction,1917,,,,,2022-06-06 21:13:55,16858
5fb34f4786f1bb65410c1c87,ma_choice_v4_pilot4,5fb34f4786f1bb65410c1c87,4,Size of yard,-1,600 square feet,0 square feet,direction,3056,,,,,2022-06-06 21:13:56,16859
59fd7b4a728b1b0001ad86fc,ma_choice_v4_pilot4,59fd7b4a728b1b0001ad86fc,0,Reputation of closest school,1,,,ew_att_rating,18973,,,,,2022-06-06 21:13:57,16860
59fd7b4a728b1b0001ad86fc,ma_choice_v4_pilot4,59fd7b4a728b1b0001ad86fc,0,Size of home,1,,,ew_att_rating,18973,,,,,2022-06-06 21:13:57,16861
59fd7b4a728b1b0001ad86fc,ma_choice_v4_pilot4,59fd7b4a728b1b0001ad86fc,0,Quality of heat/AC system,1,,,ew_att_rating,18973,,,,,2022-06-06 21:13:57,16862
5d9d2e421af9ed0011c31894,ma_choice_v4_pilot4,5d9d2e421af9ed0011c31894,4,Size of yard,-1,600 square feet,0 square feet,direction,2530,,,,,2022-06-06 21:14:01,16863
5d9d2e421af9ed0011c31894,ma_choice_v4_pilot4,5d9d2e421af9ed0011c31894,3,Year building was built,-1,2020,1950,direction,2199,,,,,2022-06-06 21:14:05,16864
59fd7b4a728b1b0001ad86fc,ma_choice_v4_pilot4,59fd7b4a728b1b0001ad86fc,0,Reputation of closest school,1,,,lex_att_rating,4304,,,,,2022-06-06 21:14:10,16865
5fb34f4786f1bb65410c1c87,ma_choice_v4_pilot4,5fb34f4786f1bb65410c1c87,7,Amount of traffic,-1,A Moderate Amount,A Lot,direction,5773,,,,,2022-06-06 21:14:31,16866
5fb34f4786f1bb65410c1c87,ma_choice_v4_pilot4,5fb34f4786f1bb65410c1c87,8,Size of home,-1,1800 square feet,600 square feet,direction,2120,,,,,2022-06-06 21:14:36,16867
5fb34f4786f1bb65410c1c87,ma_choice_v4_pilot4,5fb34f4786f1bb65410c1c87,3,Year building was built,-1,1985,2020,direction,6819,,,,,2022-06-06 21:14:46,16868
5fb34f4786f1bb65410c1c87,ma_choice_v4_pilot4,5fb34f4786f1bb65410c1c87,0,Closeness to parks,-1,20 min away,30 min away,direction,2277,,,,,2022-06-06 21:14:53,16869
5fb34f4786f1bb65410c1c87,ma_choice_v4_pilot4,5fb34f4786f1bb65410c1c87,5,Quality of kitchen,-1,Very Good,Very Bad,direction,1362,,,,,2022-06-06 21:14:58,16870
5fb34f4786f1bb65410c1c87,ma_choice_v4_pilot4,5fb34f4786f1bb65410c1c87,1,Noise pollution,-1,Very Low,Very High,direction,1877,,,,,2022-06-06 21:15:03,16871
5fb34f4786f1bb65410c1c87,ma_choice_v4_pilot4,5fb34f4786f1bb65410c1c87,6,Quality of heat/AC system,-1,Very Good,Very Bad,direction,1568,,,,,2022-06-06 21:15:24,16872
5fb34f4786f1bb65410c1c87,ma_choice_v4_pilot4,5fb34f4786f1bb65410c1c87,2,Reputation of closest school,-1,Very Good,Very Bad,direction,1724,,,,,2022-06-06 21:15:30,16873
5e782c5d99df853a6f1315f4,ma_choice_v4_pilot4,5e782c5d99df853a6f1315f4,4,Size of yard,-1,600 square feet,0 square feet,direction,2671,,,,,2022-06-06 21:15:46,16874
5e782c5d99df853a6f1315f4,ma_choice_v4_pilot4,5e782c5d99df853a6f1315f4,7,Amount of traffic,-1,Very Little,A Lot,direction,4042,,,,,2022-06-06 21:15:52,16875
5e782c5d99df853a6f1315f4,ma_choice_v4_pilot4,5e782c5d99df853a6f1315f4,6,Quality of heat/AC system,-1,Very Good,Very Bad,direction,2016,,,,,2022-06-06 21:15:57,16876
5e782c5d99df853a6f1315f4,ma_choice_v4_pilot4,5e782c5d99df853a6f1315f4,2,Reputation of closest school,-1,Very Good,Very Bad,direction,2694,,,,,2022-06-06 21:16:03,16877
5e782c5d99df853a6f1315f4,ma_choice_v4_pilot4,5e782c5d99df853a6f1315f4,5,Quality of kitchen,-1,Very Good,Very Bad,direction,1751,,,,,2022-06-06 21:16:07,16878
5e782c5d99df853a6f1315f4,ma_choice_v4_pilot4,5e782c5d99df853a6f1315f4,8,Size of home,-1,1800 square feet,600 square feet,direction,2866,,,,,2022-06-06 21:16:12,16879
5e782c5d99df853a6f1315f4,ma_choice_v4_pilot4,5e782c5d99df853a6f1315f4,0,Closeness to parks,-1,10 min away,30 min away,direction,2026,,,,,2022-06-06 21:16:18,16880
5e782c5d99df853a6f1315f4,ma_choice_v4_pilot4,5e782c5d99df853a6f1315f4,3,Year building was built,-1,2020,1950,direction,2173,,,,,2022-06-06 21:16:23,16881
5e782c5d99df853a6f1315f4,ma_choice_v4_pilot4,5e782c5d99df853a6f1315f4,1,Noise pollution,-1,Very Low,Very High,direction,2277,,,,,2022-06-06 21:16:28,16882
60b7987b6896594aed1a3fb2,ma_choice_v4_pilot4,60b7987b6896594aed1a3fb2,5,Quality of kitchen,25,,,wad_att_rating,4179,,,,,2022-06-06 21:17:59,16883
60b7987b6896594aed1a3fb2,ma_choice_v4_pilot4,60b7987b6896594aed1a3fb2,0,Closeness to parks,1,,,wad_att_rating,4830,,,,,2022-06-06 21:18:03,16884
60b7987b6896594aed1a3fb2,ma_choice_v4_pilot4,60b7987b6896594aed1a3fb2,8,Size of home,37,,,wad_att_rating,4928,,,,,2022-06-06 21:18:08,16885
60b7987b6896594aed1a3fb2,ma_choice_v4_pilot4,60b7987b6896594aed1a3fb2,4,Size of yard,39,,,wad_att_rating,4097,,,,,2022-06-06 21:18:12,16886
60b7987b6896594aed1a3fb2,ma_choice_v4_pilot4,60b7987b6896594aed1a3fb2,2,Reputation of closest school,100,,,wad_att_rating,2927,,,,,2022-06-06 21:18:15,16887
60b7987b6896594aed1a3fb2,ma_choice_v4_pilot4,60b7987b6896594aed1a3fb2,1,Noise pollution,62,,,wad_att_rating,3368,,,,,2022-06-06 21:18:19,16888
60b7987b6896594aed1a3fb2,ma_choice_v4_pilot4,60b7987b6896594aed1a3fb2,7,Amount of traffic,88,,,wad_att_rating,3278,,,,,2022-06-06 21:18:22,16889
60b7987b6896594aed1a3fb2,ma_choice_v4_pilot4,60b7987b6896594aed1a3fb2,3,Year building was built,14,,,wad_att_rating,2813,,,,,2022-06-06 21:18:25,16890
60b7987b6896594aed1a3fb2,ma_choice_v4_pilot4,60b7987b6896594aed1a3fb2,6,Quality of heat/AC system,5,,,wad_att_rating,2612,,,,,2022-06-06 21:18:27,16891
60b7987b6896594aed1a3fb2,ma_choice_v4_pilot4,60b7987b6896594aed1a3fb2,0,Reputation of closest school,1,,,lex_att_rating,4159,,,,,2022-06-06 21:18:39,16892
60b7987b6896594aed1a3fb2,ma_choice_v4_pilot4,60b7987b6896594aed1a3fb2,0,Noise pollution,1,,,ew_att_rating,7641,,,,,2022-06-06 21:18:49,16893
60b7987b6896594aed1a3fb2,ma_choice_v4_pilot4,60b7987b6896594aed1a3fb2,0,Reputation of closest school,1,,,ew_att_rating,7641,,,,,2022-06-06 21:18:49,16894
60b7987b6896594aed1a3fb2,ma_choice_v4_pilot4,60b7987b6896594aed1a3fb2,0,Amount of traffic,1,,,ew_att_rating,7641,,,,,2022-06-06 21:18:49,16895
60b7987b6896594aed1a3fb2,ma_choice_v4_pilot4,60b7987b6896594aed1a3fb2,8,Size of home,-1,1800 square feet,600 square feet,direction,2476,,,,,2022-06-06 21:22:41,16896
60b7987b6896594aed1a3fb2,ma_choice_v4_pilot4,60b7987b6896594aed1a3fb2,7,Amount of traffic,-1,Very Little,A Lot,direction,4361,,,,,2022-06-06 21:22:48,16897
60b7987b6896594aed1a3fb2,ma_choice_v4_pilot4,60b7987b6896594aed1a3fb2,5,Quality of kitchen,-1,Very Good,Very Bad,direction,1708,,,,,2022-06-06 21:22:53,16898
60b7987b6896594aed1a3fb2,ma_choice_v4_pilot4,60b7987b6896594aed1a3fb2,3,Year building was built,-1,2020,1950,direction,1960,,,,,2022-06-06 21:22:57,16899
60b7987b6896594aed1a3fb2,ma_choice_v4_pilot4,60b7987b6896594aed1a3fb2,1,Noise pollution,-1,Very Low,Very High,direction,2425,,,,,2022-06-06 21:23:03,16900
60b7987b6896594aed1a3fb2,ma_choice_v4_pilot4,60b7987b6896594aed1a3fb2,2,Reputation of closest school,-1,Very Good,Very Bad,direction,1443,,,,,2022-06-06 21:23:06,16901
60b7987b6896594aed1a3fb2,ma_choice_v4_pilot4,60b7987b6896594aed1a3fb2,4,Size of yard,-1,600 square feet,0 square feet,direction,1859,,,,,2022-06-06 21:23:13,16902
60b7987b6896594aed1a3fb2,ma_choice_v4_pilot4,60b7987b6896594aed1a3fb2,6,Quality of heat/AC system,-1,Very Good,Very Bad,direction,2209,,,,,2022-06-06 21:23:18,16903
60b7987b6896594aed1a3fb2,ma_choice_v4_pilot4,60b7987b6896594aed1a3fb2,0,Closeness to parks,-1,10 min away,30 min away,direction,2175,,,,,2022-06-06 21:23:24,16904
599467b55f49420001cafa81,ma_choice_v4_pilot4,599467b55f49420001cafa81,0,Size of home,1,,,ew_att_rating,10906,,,,,2022-06-06 21:25:43,16905
599467b55f49420001cafa81,ma_choice_v4_pilot4,599467b55f49420001cafa81,0,Amount of traffic,1,,,ew_att_rating,10906,,,,,2022-06-06 21:25:43,16906
599467b55f49420001cafa81,ma_choice_v4_pilot4,599467b55f49420001cafa81,0,Quality of heat/AC system,1,,,ew_att_rating,10906,,,,,2022-06-06 21:25:43,16907
599467b55f49420001cafa81,ma_choice_v4_pilot4,599467b55f49420001cafa81,0,Noise pollution,1,,,ew_att_rating,10906,,,,,2022-06-06 21:25:43,16908
599467b55f49420001cafa81,ma_choice_v4_pilot4,599467b55f49420001cafa81,5,Quality of kitchen,13,,,wad_att_rating,3379,,,,,2022-06-06 21:25:51,16909
599467b55f49420001cafa81,ma_choice_v4_pilot4,599467b55f49420001cafa81,7,Amount of traffic,79,,,wad_att_rating,2556,,,,,2022-06-06 21:25:53,16910
599467b55f49420001cafa81,ma_choice_v4_pilot4,599467b55f49420001cafa81,0,Closeness to parks,2,,,wad_att_rating,2478,,,,,2022-06-06 21:25:56,16911
599467b55f49420001cafa81,ma_choice_v4_pilot4,599467b55f49420001cafa81,3,Year building was built,0,,,wad_att_rating,2604,,,,,2022-06-06 21:25:58,16912
599467b55f49420001cafa81,ma_choice_v4_pilot4,599467b55f49420001cafa81,8,Size of home,42,,,wad_att_rating,2532,,,,,2022-06-06 21:26:01,16913
61021de77ce595ea8d427046,ma_choice_v4_pilot4,61021de77ce595ea8d427046,0,Closeness to parks,68,,,wad_att_rating,8334,,,,,2022-06-06 21:26:03,16914
599467b55f49420001cafa81,ma_choice_v4_pilot4,599467b55f49420001cafa81,6,Quality of heat/AC system,63,,,wad_att_rating,2636,,,,,2022-06-06 21:26:04,16915
599467b55f49420001cafa81,ma_choice_v4_pilot4,599467b55f49420001cafa81,1,Noise pollution,87,,,wad_att_rating,5707,,,,,2022-06-06 21:26:09,16916
59fd7b4a728b1b0001ad86fc,ma_choice_v4_pilot4,59fd7b4a728b1b0001ad86fc,3,Year building was built,-1,2020,1950,direction,5907,,,,,2022-06-06 21:26:09,16917
599467b55f49420001cafa81,ma_choice_v4_pilot4,599467b55f49420001cafa81,2,Reputation of closest school,0,,,wad_att_rating,2761,,,,,2022-06-06 21:26:12,16918
599467b55f49420001cafa81,ma_choice_v4_pilot4,599467b55f49420001cafa81,4,Size of yard,10,,,wad_att_rating,2713,,,,,2022-06-06 21:26:15,16919
59fd7b4a728b1b0001ad86fc,ma_choice_v4_pilot4,59fd7b4a728b1b0001ad86fc,4,Size of yard,-1,600 square feet,0 square feet,direction,3310,,,,,2022-06-06 21:26:20,16920
599467b55f49420001cafa81,ma_choice_v4_pilot4,599467b55f49420001cafa81,0,Noise pollution,1,,,lex_att_rating,4213,,,,,2022-06-06 21:26:25,16921
59fd7b4a728b1b0001ad86fc,ma_choice_v4_pilot4,59fd7b4a728b1b0001ad86fc,1,Noise pollution,-1,Very Low,Very High,direction,20866,,,,,2022-06-06 21:26:48,16922
59fd7b4a728b1b0001ad86fc,ma_choice_v4_pilot4,59fd7b4a728b1b0001ad86fc,6,Quality of heat/AC system,-1,Very Good,Very Bad,direction,2745,,,,,2022-06-06 21:27:00,16923
59fd7b4a728b1b0001ad86fc,ma_choice_v4_pilot4,59fd7b4a728b1b0001ad86fc,0,Closeness to parks,-1,10 min away,30 min away,direction,2922,,,,,2022-06-06 21:27:08,16924
59fd7b4a728b1b0001ad86fc,ma_choice_v4_pilot4,59fd7b4a728b1b0001ad86fc,7,Amount of traffic,-1,Very Little,A Lot,direction,2336,,,,,2022-06-06 21:27:14,16925
59fd7b4a728b1b0001ad86fc,ma_choice_v4_pilot4,59fd7b4a728b1b0001ad86fc,5,Quality of kitchen,-1,Very Good,Very Bad,direction,2546,,,,,2022-06-06 21:27:21,16926
61021de77ce595ea8d427046,ma_choice_v4_pilot4,61021de77ce595ea8d427046,1,Noise pollution,98,,,wad_att_rating,87313,,,,,2022-06-06 21:27:30,16927
599467b55f49420001cafa81,ma_choice_v4_pilot4,599467b55f49420001cafa81,1,Noise pollution,-1,Very Low,Very High,direction,2652,,,,,2022-06-06 21:27:33,16928
59fd7b4a728b1b0001ad86fc,ma_choice_v4_pilot4,59fd7b4a728b1b0001ad86fc,2,Reputation of closest school,-1,Very Good,Very Bad,direction,2953,,,,,2022-06-06 21:27:37,16929
59fd7b4a728b1b0001ad86fc,ma_choice_v4_pilot4,59fd7b4a728b1b0001ad86fc,8,Size of home,-1,1800 square feet,600 square feet,direction,2561,,,,,2022-06-06 21:27:43,16930
599467b55f49420001cafa81,ma_choice_v4_pilot4,599467b55f49420001cafa81,5,Quality of kitchen,-1,Good,Very Bad,direction,4711,,,,,2022-06-06 21:27:43,16931
599467b55f49420001cafa81,ma_choice_v4_pilot4,599467b55f49420001cafa81,7,Amount of traffic,-1,A Little,A Lot,direction,2465,,,,,2022-06-06 21:27:50,16932
61021de77ce595ea8d427046,ma_choice_v4_pilot4,61021de77ce595ea8d427046,2,Reputation of closest school,50,,,wad_att_rating,26308,,,,,2022-06-06 21:27:57,16933
599467b55f49420001cafa81,ma_choice_v4_pilot4,599467b55f49420001cafa81,3,Year building was built,-1,2020,1950,direction,2240,,,,,2022-06-06 21:27:58,16934
61021de77ce595ea8d427046,ma_choice_v4_pilot4,61021de77ce595ea8d427046,3,Year building was built,50,,,wad_att_rating,5275,,,,,2022-06-06 21:28:02,16935
61021de77ce595ea8d427046,ma_choice_v4_pilot4,61021de77ce595ea8d427046,8,Size of home,60,,,wad_att_rating,4550,,,,,2022-06-06 21:28:06,16936
599467b55f49420001cafa81,ma_choice_v4_pilot4,599467b55f49420001cafa81,8,Size of home,-1,1800 square feet,600 square feet,direction,2504,,,,,2022-06-06 21:28:12,16937
599467b55f49420001cafa81,ma_choice_v4_pilot4,599467b55f49420001cafa81,4,Size of yard,-1,600 square feet,0 square feet,direction,1926,,,,,2022-06-06 21:28:17,16938
599467b55f49420001cafa81,ma_choice_v4_pilot4,599467b55f49420001cafa81,6,Quality of heat/AC system,-1,Very Good,Very Bad,direction,1798,,,,,2022-06-06 21:28:22,16939
61021de77ce595ea8d427046,ma_choice_v4_pilot4,61021de77ce595ea8d427046,4,Size of yard,74,,,wad_att_rating,17423,,,,,2022-06-06 21:28:24,16940
61021de77ce595ea8d427046,ma_choice_v4_pilot4,61021de77ce595ea8d427046,6,Quality of heat/AC system,70,,,wad_att_rating,5757,,,,,2022-06-06 21:28:30,16941
599467b55f49420001cafa81,ma_choice_v4_pilot4,599467b55f49420001cafa81,0,Closeness to parks,-1,10 min away,25 min away,direction,3090,,,,,2022-06-06 21:28:32,16942
61021de77ce595ea8d427046,ma_choice_v4_pilot4,61021de77ce595ea8d427046,7,Amount of traffic,65,,,wad_att_rating,6786,,,,,2022-06-06 21:28:36,16943
599467b55f49420001cafa81,ma_choice_v4_pilot4,599467b55f49420001cafa81,2,Reputation of closest school,-1,Very Good,Very Bad,direction,3168,,,,,2022-06-06 21:28:39,16944
61021de77ce595ea8d427046,ma_choice_v4_pilot4,61021de77ce595ea8d427046,5,Quality of kitchen,46,,,wad_att_rating,18573,,,,,2022-06-06 21:28:55,16945
61021de77ce595ea8d427046,ma_choice_v4_pilot4,61021de77ce595ea8d427046,0,Reputation of closest school,1,,,ew_att_rating,23337,,,,,2022-06-06 21:29:22,16946
61021de77ce595ea8d427046,ma_choice_v4_pilot4,61021de77ce595ea8d427046,0,Noise pollution,1,,,ew_att_rating,23337,,,,,2022-06-06 21:29:22,16947
61021de77ce595ea8d427046,ma_choice_v4_pilot4,61021de77ce595ea8d427046,0,Size of yard,1,,,ew_att_rating,23337,,,,,2022-06-06 21:29:22,16948
61021de77ce595ea8d427046,ma_choice_v4_pilot4,61021de77ce595ea8d427046,0,Size of home,1,,,ew_att_rating,23337,,,,,2022-06-06 21:29:22,16949
61021de77ce595ea8d427046,ma_choice_v4_pilot4,61021de77ce595ea8d427046,0,Quality of heat/AC system,1,,,ew_att_rating,23337,,,,,2022-06-06 21:29:22,16950
61021de77ce595ea8d427046,ma_choice_v4_pilot4,61021de77ce595ea8d427046,0,Noise pollution,1,,,lex_att_rating,12029,,,,,2022-06-06 21:29:36,16951
6291395df95f13a81f5ea2dd,ma_choice_v4_pilot4,6291395df95f13a81f5ea2dd,0,Quality of heat/AC system,1,,,lex_att_rating,3414,,,,,2022-06-06 21:34:11,16952
58e79ac632bebb0001b741ec,ma_choice_v4_pilot4,58e79ac632bebb0001b741ec,0,Year building was built,1,,,ew_att_rating,25028,,,,,2022-06-06 21:34:17,16953
58e79ac632bebb0001b741ec,ma_choice_v4_pilot4,58e79ac632bebb0001b741ec,0,Reputation of closest school,1,,,ew_att_rating,25028,,,,,2022-06-06 21:34:17,16954
58e79ac632bebb0001b741ec,ma_choice_v4_pilot4,58e79ac632bebb0001b741ec,0,Quality of kitchen,1,,,ew_att_rating,25028,,,,,2022-06-06 21:34:17,16955
58e79ac632bebb0001b741ec,ma_choice_v4_pilot4,58e79ac632bebb0001b741ec,0,Size of home,1,,,ew_att_rating,25028,,,,,2022-06-06 21:34:17,16956
58e79ac632bebb0001b741ec,ma_choice_v4_pilot4,58e79ac632bebb0001b741ec,0,Size of home,1,,,lex_att_rating,5365,,,,,2022-06-06 21:34:25,16957
6291395df95f13a81f5ea2dd,ma_choice_v4_pilot4,6291395df95f13a81f5ea2dd,0,Quality of kitchen,1,,,ew_att_rating,11155,,,,,2022-06-06 21:34:31,16958
6291395df95f13a81f5ea2dd,ma_choice_v4_pilot4,6291395df95f13a81f5ea2dd,0,Size of yard,1,,,ew_att_rating,11155,,,,,2022-06-06 21:34:31,16959
6291395df95f13a81f5ea2dd,ma_choice_v4_pilot4,6291395df95f13a81f5ea2dd,0,Quality of heat/AC system,1,,,ew_att_rating,11155,,,,,2022-06-06 21:34:31,16960
6291395df95f13a81f5ea2dd,ma_choice_v4_pilot4,6291395df95f13a81f5ea2dd,0,Year building was built,1,,,ew_att_rating,11155,,,,,2022-06-06 21:34:31,16961
6291395df95f13a81f5ea2dd,ma_choice_v4_pilot4,6291395df95f13a81f5ea2dd,0,Size of home,1,,,ew_att_rating,11155,,,,,2022-06-06 21:34:31,16962
6291395df95f13a81f5ea2dd,ma_choice_v4_pilot4,6291395df95f13a81f5ea2dd,8,Size of home,42,,,wad_att_rating,4016,,,,,2022-06-06 21:34:37,16963
6291395df95f13a81f5ea2dd,ma_choice_v4_pilot4,6291395df95f13a81f5ea2dd,1,Noise pollution,25,,,wad_att_rating,1836,,,,,2022-06-06 21:34:38,16964
6291395df95f13a81f5ea2dd,ma_choice_v4_pilot4,6291395df95f13a81f5ea2dd,7,Amount of traffic,26,,,wad_att_rating,1920,,,,,2022-06-06 21:34:40,16965
6291395df95f13a81f5ea2dd,ma_choice_v4_pilot4,6291395df95f13a81f5ea2dd,3,Year building was built,46,,,wad_att_rating,2865,,,,,2022-06-06 21:34:43,16966
6291395df95f13a81f5ea2dd,ma_choice_v4_pilot4,6291395df95f13a81f5ea2dd,0,Closeness to parks,27,,,wad_att_rating,39139,,,,,2022-06-06 21:35:22,16967
6291395df95f13a81f5ea2dd,ma_choice_v4_pilot4,6291395df95f13a81f5ea2dd,6,Quality of heat/AC system,100,,,wad_att_rating,3225,,,,,2022-06-06 21:35:26,16968
6291395df95f13a81f5ea2dd,ma_choice_v4_pilot4,6291395df95f13a81f5ea2dd,2,Reputation of closest school,50,,,wad_att_rating,4717,,,,,2022-06-06 21:35:30,16969
6291395df95f13a81f5ea2dd,ma_choice_v4_pilot4,6291395df95f13a81f5ea2dd,5,Quality of kitchen,57,,,wad_att_rating,1917,,,,,2022-06-06 21:35:32,16970
6291395df95f13a81f5ea2dd,ma_choice_v4_pilot4,6291395df95f13a81f5ea2dd,4,Size of yard,53,,,wad_att_rating,2150,,,,,2022-06-06 21:35:34,16971
607ba9f40639e8a2c931d622,ma_choice_v4_pilot4,607ba9f40639e8a2c931d622,5,Quality of kitchen,86,,,wad_att_rating,6781,,,,,2022-06-06 21:38:00,16972
607ba9f40639e8a2c931d622,ma_choice_v4_pilot4,607ba9f40639e8a2c931d622,6,Quality of heat/AC system,87,,,wad_att_rating,2512,,,,,2022-06-06 21:38:02,16973
607ba9f40639e8a2c931d622,ma_choice_v4_pilot4,607ba9f40639e8a2c931d622,0,Closeness to parks,0,,,wad_att_rating,4147,,,,,2022-06-06 21:38:07,16974
6287e73ca521bd85022f8b75,ma_choice_v4_pilot4,6287e73ca521bd85022f8b75,5,Quality of kitchen,49,,,wad_att_rating,7262,,,,,2022-06-06 21:38:08,16975
607ba9f40639e8a2c931d622,ma_choice_v4_pilot4,607ba9f40639e8a2c931d622,1,Noise pollution,49,,,wad_att_rating,3012,,,,,2022-06-06 21:38:10,16976
607ba9f40639e8a2c931d622,ma_choice_v4_pilot4,607ba9f40639e8a2c931d622,8,Size of home,73,,,wad_att_rating,3646,,,,,2022-06-06 21:38:13,16977
607ba9f40639e8a2c931d622,ma_choice_v4_pilot4,607ba9f40639e8a2c931d622,2,Reputation of closest school,0,,,wad_att_rating,3080,,,,,2022-06-06 21:38:16,16978
6287e73ca521bd85022f8b75,ma_choice_v4_pilot4,6287e73ca521bd85022f8b75,4,Size of yard,50,,,wad_att_rating,8715,,,,,2022-06-06 21:38:17,16979
607ba9f40639e8a2c931d622,ma_choice_v4_pilot4,607ba9f40639e8a2c931d622,7,Amount of traffic,61,,,wad_att_rating,3163,,,,,2022-06-06 21:38:19,16980
607ba9f40639e8a2c931d622,ma_choice_v4_pilot4,607ba9f40639e8a2c931d622,3,Year building was built,0,,,wad_att_rating,2929,,,,,2022-06-06 21:38:22,16981
6287e73ca521bd85022f8b75,ma_choice_v4_pilot4,6287e73ca521bd85022f8b75,1,Noise pollution,75,,,wad_att_rating,6388,,,,,2022-06-06 21:38:23,16982
607ba9f40639e8a2c931d622,ma_choice_v4_pilot4,607ba9f40639e8a2c931d622,4,Size of yard,51,,,wad_att_rating,2878,,,,,2022-06-06 21:38:25,16983
6287e73ca521bd85022f8b75,ma_choice_v4_pilot4,6287e73ca521bd85022f8b75,2,Reputation of closest school,75,,,wad_att_rating,4838,,,,,2022-06-06 21:38:28,16984
607ba9f40639e8a2c931d622,ma_choice_v4_pilot4,607ba9f40639e8a2c931d622,0,Quality of heat/AC system,1,,,lex_att_rating,3266,,,,,2022-06-06 21:38:33,16985
6287e73ca521bd85022f8b75,ma_choice_v4_pilot4,6287e73ca521bd85022f8b75,3,Year building was built,29,,,wad_att_rating,9832,,,,,2022-06-06 21:38:38,16986
6287e73ca521bd85022f8b75,ma_choice_v4_pilot4,6287e73ca521bd85022f8b75,7,Amount of traffic,37,,,wad_att_rating,12583,,,,,2022-06-06 21:38:51,16987
6287e73ca521bd85022f8b75,ma_choice_v4_pilot4,6287e73ca521bd85022f8b75,8,Size of home,90,,,wad_att_rating,3340,,,,,2022-06-06 21:38:54,16988
607ba9f40639e8a2c931d622,ma_choice_v4_pilot4,607ba9f40639e8a2c931d622,0,Noise pollution,1,,,ew_att_rating,13997,,,,,2022-06-06 21:38:56,16989
607ba9f40639e8a2c931d622,ma_choice_v4_pilot4,607ba9f40639e8a2c931d622,0,Amount of traffic,1,,,ew_att_rating,13997,,,,,2022-06-06 21:38:56,16990
607ba9f40639e8a2c931d622,ma_choice_v4_pilot4,607ba9f40639e8a2c931d622,0,Quality of kitchen,1,,,ew_att_rating,13997,,,,,2022-06-06 21:38:56,16991
607ba9f40639e8a2c931d622,ma_choice_v4_pilot4,607ba9f40639e8a2c931d622,0,Size of yard,1,,,ew_att_rating,13997,,,,,2022-06-06 21:38:56,16992
607ba9f40639e8a2c931d622,ma_choice_v4_pilot4,607ba9f40639e8a2c931d622,0,Quality of heat/AC system,1,,,ew_att_rating,13997,,,,,2022-06-06 21:38:56,16993
607ba9f40639e8a2c931d622,ma_choice_v4_pilot4,607ba9f40639e8a2c931d622,0,Size of home,1,,,ew_att_rating,13997,,,,,2022-06-06 21:38:56,16994
6287e73ca521bd85022f8b75,ma_choice_v4_pilot4,6287e73ca521bd85022f8b75,6,Quality of heat/AC system,29,,,wad_att_rating,5326,,,,,2022-06-06 21:38:59,16995
6287e73ca521bd85022f8b75,ma_choice_v4_pilot4,6287e73ca521bd85022f8b75,0,Closeness to parks,33,,,wad_att_rating,4646,,,,,2022-06-06 21:39:04,16996
6287e73ca521bd85022f8b75,ma_choice_v4_pilot4,6287e73ca521bd85022f8b75,0,Size of home,1,,,lex_att_rating,16580,,,,,2022-06-06 21:39:29,16997
6291395df95f13a81f5ea2dd,ma_choice_v4_pilot4,6291395df95f13a81f5ea2dd,5,Quality of kitchen,-1,Good,Very Bad,direction,2358,,,,,2022-06-06 21:39:33,16998
6291395df95f13a81f5ea2dd,ma_choice_v4_pilot4,6291395df95f13a81f5ea2dd,1,Noise pollution,-1,Moderate,Moderate,direction,1595,,,,,2022-06-06 21:39:38,16999
607ba9f40639e8a2c931d622,ma_choice_v4_pilot4,607ba9f40639e8a2c931d622,3,Year building was built,-1,1950,1985,direction,3639,,,,,2022-06-06 21:39:42,17000
6291395df95f13a81f5ea2dd,ma_choice_v4_pilot4,6291395df95f13a81f5ea2dd,4,Size of yard,-1,600 square feet,0 square feet,direction,2151,,,,,2022-06-06 21:39:44,17001
6291395df95f13a81f5ea2dd,ma_choice_v4_pilot4,6291395df95f13a81f5ea2dd,7,Amount of traffic,-1,A Moderate Amount,A Lot,direction,2077,,,,,2022-06-06 21:39:48,17002
6291395df95f13a81f5ea2dd,ma_choice_v4_pilot4,6291395df95f13a81f5ea2dd,6,Quality of heat/AC system,-1,Very Good,Very Bad,direction,1298,,,,,2022-06-06 21:39:51,17003
607ba9f40639e8a2c931d622,ma_choice_v4_pilot4,607ba9f40639e8a2c931d622,2,Reputation of closest school,-1,Good,Very Bad,direction,3872,,,,,2022-06-06 21:39:59,17004
6287e73ca521bd85022f8b75,ma_choice_v4_pilot4,6287e73ca521bd85022f8b75,0,Size of home,1,,,ew_att_rating,27505,,,,,2022-06-06 21:40:02,17005
6287e73ca521bd85022f8b75,ma_choice_v4_pilot4,6287e73ca521bd85022f8b75,0,Reputation of closest school,1,,,ew_att_rating,27505,,,,,2022-06-06 21:40:02,17006
6287e73ca521bd85022f8b75,ma_choice_v4_pilot4,6287e73ca521bd85022f8b75,0,Noise pollution,1,,,ew_att_rating,27505,,,,,2022-06-06 21:40:02,17007
6287e73ca521bd85022f8b75,ma_choice_v4_pilot4,6287e73ca521bd85022f8b75,0,Year building was built,1,,,ew_att_rating,27505,,,,,2022-06-06 21:40:02,17008
607ba9f40639e8a2c931d622,ma_choice_v4_pilot4,607ba9f40639e8a2c931d622,6,Quality of heat/AC system,-1,Very Good,Very Bad,direction,2441,,,,,2022-06-06 21:40:05,17009
607ba9f40639e8a2c931d622,ma_choice_v4_pilot4,607ba9f40639e8a2c931d622,7,Amount of traffic,-1,Very Little,A Lot,direction,2823,,,,,2022-06-06 21:40:11,17010
607ba9f40639e8a2c931d622,ma_choice_v4_pilot4,607ba9f40639e8a2c931d622,1,Noise pollution,-1,Very Low,Very High,direction,2041,,,,,2022-06-06 21:40:15,17011
6291395df95f13a81f5ea2dd,ma_choice_v4_pilot4,6291395df95f13a81f5ea2dd,8,Size of home,-1,1800 square feet,1200 square feet,direction,1362,,,,,2022-06-06 21:40:17,17012
6291395df95f13a81f5ea2dd,ma_choice_v4_pilot4,6291395df95f13a81f5ea2dd,3,Year building was built,-1,2020,1985,direction,1023,,,,,2022-06-06 21:40:20,17013
6291395df95f13a81f5ea2dd,ma_choice_v4_pilot4,6291395df95f13a81f5ea2dd,2,Reputation of closest school,-1,Moderate,Moderate,direction,688,,,,,2022-06-06 21:40:23,17014
607ba9f40639e8a2c931d622,ma_choice_v4_pilot4,607ba9f40639e8a2c931d622,0,Closeness to parks,-1,15 min away,30 min away,direction,2806,,,,,2022-06-06 21:40:24,17015
6291395df95f13a81f5ea2dd,ma_choice_v4_pilot4,6291395df95f13a81f5ea2dd,0,Closeness to parks,-1,20 min away,15 min away,direction,770,,,,,2022-06-06 21:40:25,17016
607ba9f40639e8a2c931d622,ma_choice_v4_pilot4,607ba9f40639e8a2c931d622,8,Size of home,-1,1800 square feet,600 square feet,direction,1839,,,,,2022-06-06 21:40:29,17017
607ba9f40639e8a2c931d622,ma_choice_v4_pilot4,607ba9f40639e8a2c931d622,5,Quality of kitchen,-1,Very Good,Very Bad,direction,1888,,,,,2022-06-06 21:40:34,17018
61729e07e7b9b645c1741ca9,ma_choice_v4_pilot4,61729e07e7b9b645c1741ca9,0,Noise pollution,1,,,ew_att_rating,11298,,,,,2022-06-06 21:40:37,17019
61729e07e7b9b645c1741ca9,ma_choice_v4_pilot4,61729e07e7b9b645c1741ca9,0,Quality of kitchen,1,,,ew_att_rating,11298,,,,,2022-06-06 21:40:37,17020
607ba9f40639e8a2c931d622,ma_choice_v4_pilot4,607ba9f40639e8a2c931d622,4,Size of yard,-1,600 square feet,0 square feet,direction,1972,,,,,2022-06-06 21:40:39,17021
61729e07e7b9b645c1741ca9,ma_choice_v4_pilot4,61729e07e7b9b645c1741ca9,1,Noise pollution,80,,,wad_att_rating,11143,,,,,2022-06-06 21:40:50,17022
61729e07e7b9b645c1741ca9,ma_choice_v4_pilot4,61729e07e7b9b645c1741ca9,8,Size of home,45,,,wad_att_rating,4287,,,,,2022-06-06 21:40:55,17023
61729e07e7b9b645c1741ca9,ma_choice_v4_pilot4,61729e07e7b9b645c1741ca9,6,Quality of heat/AC system,51,,,wad_att_rating,4142,,,,,2022-06-06 21:40:59,17024
61729e07e7b9b645c1741ca9,ma_choice_v4_pilot4,61729e07e7b9b645c1741ca9,3,Year building was built,23,,,wad_att_rating,4870,,,,,2022-06-06 21:41:04,17025
61729e07e7b9b645c1741ca9,ma_choice_v4_pilot4,61729e07e7b9b645c1741ca9,0,Closeness to parks,10,,,wad_att_rating,3606,,,,,2022-06-06 21:41:07,17026
61729e07e7b9b645c1741ca9,ma_choice_v4_pilot4,61729e07e7b9b645c1741ca9,7,Amount of traffic,32,,,wad_att_rating,3807,,,,,2022-06-06 21:41:11,17027
61729e07e7b9b645c1741ca9,ma_choice_v4_pilot4,61729e07e7b9b645c1741ca9,5,Quality of kitchen,72,,,wad_att_rating,3599,,,,,2022-06-06 21:41:15,17028
61729e07e7b9b645c1741ca9,ma_choice_v4_pilot4,61729e07e7b9b645c1741ca9,2,Reputation of closest school,9,,,wad_att_rating,4767,,,,,2022-06-06 21:41:20,17029
61729e07e7b9b645c1741ca9,ma_choice_v4_pilot4,61729e07e7b9b645c1741ca9,4,Size of yard,22,,,wad_att_rating,2654,,,,,2022-06-06 21:41:22,17030
61729e07e7b9b645c1741ca9,ma_choice_v4_pilot4,61729e07e7b9b645c1741ca9,0,Noise pollution,1,,,lex_att_rating,6559,,,,,2022-06-06 21:41:31,17031
6287e73ca521bd85022f8b75,ma_choice_v4_pilot4,6287e73ca521bd85022f8b75,7,Amount of traffic,-1,A Little,A Lot,direction,25723,,,,,2022-06-06 21:41:47,17032
6287e73ca521bd85022f8b75,ma_choice_v4_pilot4,6287e73ca521bd85022f8b75,8,Size of home,-1,1200 square feet,600 square feet,direction,28031,,,,,2022-06-06 21:42:24,17033
6287e73ca521bd85022f8b75,ma_choice_v4_pilot4,6287e73ca521bd85022f8b75,3,Year building was built,-1,2020,1950,direction,10475,,,,,2022-06-06 21:42:55,17034
6287e73ca521bd85022f8b75,ma_choice_v4_pilot4,6287e73ca521bd85022f8b75,6,Quality of heat/AC system,-1,Very Bad,Very Bad,direction,8962,,,,,2022-06-06 21:43:18,17035
6287e73ca521bd85022f8b75,ma_choice_v4_pilot4,6287e73ca521bd85022f8b75,4,Size of yard,-1,300 square feet,0 square feet,direction,4663,,,,,2022-06-06 21:43:52,17036
6287e73ca521bd85022f8b75,ma_choice_v4_pilot4,6287e73ca521bd85022f8b75,5,Quality of kitchen,-1,Very Good,Very Bad,direction,3745,,,,,2022-06-06 21:44:00,17037
6287e73ca521bd85022f8b75,ma_choice_v4_pilot4,6287e73ca521bd85022f8b75,1,Noise pollution,-1,Very Low,Very High,direction,1835,,,,,2022-06-06 21:44:05,17038
6287e73ca521bd85022f8b75,ma_choice_v4_pilot4,6287e73ca521bd85022f8b75,0,Closeness to parks,-1,15 min away,30 min away,direction,2792,,,,,2022-06-06 21:44:12,17039
6287e73ca521bd85022f8b75,ma_choice_v4_pilot4,6287e73ca521bd85022f8b75,2,Reputation of closest school,-1,Very Good,Very Bad,direction,1114,,,,,2022-06-06 21:44:16,17040
5f095db6fc8e5a1e2271dc47,ma_choice_v4_pilot4,5f095db6fc8e5a1e2271dc47,0,Closeness to parks,34,,,wad_att_rating,3834,,,,,2022-06-06 21:44:46,17041
589f84ba27c3bb00014e6ab4,ma_choice_v4_pilot4,589f84ba27c3bb00014e6ab4,0,Noise pollution,1,,,ew_att_rating,19477,,,,,2022-06-06 21:44:47,17042
589f84ba27c3bb00014e6ab4,ma_choice_v4_pilot4,589f84ba27c3bb00014e6ab4,0,Amount of traffic,1,,,ew_att_rating,19477,,,,,2022-06-06 21:44:47,17043
589f84ba27c3bb00014e6ab4,ma_choice_v4_pilot4,589f84ba27c3bb00014e6ab4,0,Quality of kitchen,1,,,ew_att_rating,19477,,,,,2022-06-06 21:44:47,17044
589f84ba27c3bb00014e6ab4,ma_choice_v4_pilot4,589f84ba27c3bb00014e6ab4,0,Quality of heat/AC system,1,,,ew_att_rating,19477,,,,,2022-06-06 21:44:47,17045
5f095db6fc8e5a1e2271dc47,ma_choice_v4_pilot4,5f095db6fc8e5a1e2271dc47,3,Year building was built,42,,,wad_att_rating,2563,,,,,2022-06-06 21:44:48,17046
5f095db6fc8e5a1e2271dc47,ma_choice_v4_pilot4,5f095db6fc8e5a1e2271dc47,1,Noise pollution,46,,,wad_att_rating,2278,,,,,2022-06-06 21:44:51,17047
5f095db6fc8e5a1e2271dc47,ma_choice_v4_pilot4,5f095db6fc8e5a1e2271dc47,4,Size of yard,71,,,wad_att_rating,2438,,,,,2022-06-06 21:44:53,17048
5f095db6fc8e5a1e2271dc47,ma_choice_v4_pilot4,5f095db6fc8e5a1e2271dc47,5,Quality of kitchen,8,,,wad_att_rating,2045,,,,,2022-06-06 21:44:55,17049
5f095db6fc8e5a1e2271dc47,ma_choice_v4_pilot4,5f095db6fc8e5a1e2271dc47,7,Amount of traffic,59,,,wad_att_rating,2422,,,,,2022-06-06 21:44:58,17050
589f84ba27c3bb00014e6ab4,ma_choice_v4_pilot4,589f84ba27c3bb00014e6ab4,5,Quality of kitchen,88,,,wad_att_rating,5020,,,,,2022-06-06 21:44:59,17051
5f095db6fc8e5a1e2271dc47,ma_choice_v4_pilot4,5f095db6fc8e5a1e2271dc47,6,Quality of heat/AC system,37,,,wad_att_rating,2630,,,,,2022-06-06 21:45:00,17052
5f095db6fc8e5a1e2271dc47,ma_choice_v4_pilot4,5f095db6fc8e5a1e2271dc47,8,Size of home,58,,,wad_att_rating,2772,,,,,2022-06-06 21:45:03,17053
589f84ba27c3bb00014e6ab4,ma_choice_v4_pilot4,589f84ba27c3bb00014e6ab4,7,Amount of traffic,65,,,wad_att_rating,4525,,,,,2022-06-06 21:45:03,17054
5f095db6fc8e5a1e2271dc47,ma_choice_v4_pilot4,5f095db6fc8e5a1e2271dc47,2,Reputation of closest school,100,,,wad_att_rating,3085,,,,,2022-06-06 21:45:06,17055
589f84ba27c3bb00014e6ab4,ma_choice_v4_pilot4,589f84ba27c3bb00014e6ab4,0,Closeness to parks,0,,,wad_att_rating,3111,,,,,2022-06-06 21:45:06,17056
589f84ba27c3bb00014e6ab4,ma_choice_v4_pilot4,589f84ba27c3bb00014e6ab4,8,Size of home,43,,,wad_att_rating,5624,,,,,2022-06-06 21:45:12,17057
5f095db6fc8e5a1e2271dc47,ma_choice_v4_pilot4,5f095db6fc8e5a1e2271dc47,0,Reputation of closest school,1,,,lex_att_rating,4055,,,,,2022-06-06 21:45:15,17058
589f84ba27c3bb00014e6ab4,ma_choice_v4_pilot4,589f84ba27c3bb00014e6ab4,4,Size of yard,25,,,wad_att_rating,4012,,,,,2022-06-06 21:45:16,17059
589f84ba27c3bb00014e6ab4,ma_choice_v4_pilot4,589f84ba27c3bb00014e6ab4,6,Quality of heat/AC system,100,,,wad_att_rating,2875,,,,,2022-06-06 21:45:19,17060
589f84ba27c3bb00014e6ab4,ma_choice_v4_pilot4,589f84ba27c3bb00014e6ab4,3,Year building was built,0,,,wad_att_rating,4138,,,,,2022-06-06 21:45:23,17061
589f84ba27c3bb00014e6ab4,ma_choice_v4_pilot4,589f84ba27c3bb00014e6ab4,2,Reputation of closest school,0,,,wad_att_rating,2454,,,,,2022-06-06 21:45:26,17062
589f84ba27c3bb00014e6ab4,ma_choice_v4_pilot4,589f84ba27c3bb00014e6ab4,1,Noise pollution,67,,,wad_att_rating,3207,,,,,2022-06-06 21:45:29,17063
5f095db6fc8e5a1e2271dc47,ma_choice_v4_pilot4,5f095db6fc8e5a1e2271dc47,0,Quality of heat/AC system,1,,,ew_att_rating,9988,,,,,2022-06-06 21:45:32,17064
5f095db6fc8e5a1e2271dc47,ma_choice_v4_pilot4,5f095db6fc8e5a1e2271dc47,0,Reputation of closest school,1,,,ew_att_rating,9988,,,,,2022-06-06 21:45:32,17065
589f84ba27c3bb00014e6ab4,ma_choice_v4_pilot4,589f84ba27c3bb00014e6ab4,0,Quality of heat/AC system,1,,,lex_att_rating,6814,,,,,2022-06-06 21:45:45,17066
559d9916fdf99b1e2b2dc6b8,ma_choice_v4_pilot4,559d9916fdf99b1e2b2dc6b8,0,Noise pollution,1,,,ew_att_rating,18507,,,,,2022-06-06 21:46:07,17067
559d9916fdf99b1e2b2dc6b8,ma_choice_v4_pilot4,559d9916fdf99b1e2b2dc6b8,0,Quality of heat/AC system,1,,,ew_att_rating,18507,,,,,2022-06-06 21:46:07,17068
61021de77ce595ea8d427046,ma_choice_v4_pilot4,61021de77ce595ea8d427046,3,Year building was built,-1,2020,1950,direction,5902,,,,,2022-06-06 21:46:11,17069
559d9916fdf99b1e2b2dc6b8,ma_choice_v4_pilot4,559d9916fdf99b1e2b2dc6b8,7,Amount of traffic,0,,,wad_att_rating,6836,,,,,2022-06-06 21:46:26,17070
559d9916fdf99b1e2b2dc6b8,ma_choice_v4_pilot4,559d9916fdf99b1e2b2dc6b8,4,Size of yard,0,,,wad_att_rating,6083,,,,,2022-06-06 21:46:33,17071
559d9916fdf99b1e2b2dc6b8,ma_choice_v4_pilot4,559d9916fdf99b1e2b2dc6b8,2,Reputation of closest school,0,,,wad_att_rating,4389,,,,,2022-06-06 21:46:37,17072
61729e07e7b9b645c1741ca9,ma_choice_v4_pilot4,61729e07e7b9b645c1741ca9,3,Year building was built,-1,2020,1950,direction,3951,,,,,2022-06-06 21:46:39,17073
559d9916fdf99b1e2b2dc6b8,ma_choice_v4_pilot4,559d9916fdf99b1e2b2dc6b8,6,Quality of heat/AC system,100,,,wad_att_rating,5283,,,,,2022-06-06 21:46:42,17074
559d9916fdf99b1e2b2dc6b8,ma_choice_v4_pilot4,559d9916fdf99b1e2b2dc6b8,8,Size of home,0,,,wad_att_rating,4211,,,,,2022-06-06 21:46:46,17075
61729e07e7b9b645c1741ca9,ma_choice_v4_pilot4,61729e07e7b9b645c1741ca9,2,Reputation of closest school,-1,Good,Moderate,direction,7103,,,,,2022-06-06 21:46:52,17076
559d9916fdf99b1e2b2dc6b8,ma_choice_v4_pilot4,559d9916fdf99b1e2b2dc6b8,1,Noise pollution,75,,,wad_att_rating,7051,,,,,2022-06-06 21:46:53,17077
559d9916fdf99b1e2b2dc6b8,ma_choice_v4_pilot4,559d9916fdf99b1e2b2dc6b8,3,Year building was built,0,,,wad_att_rating,3971,,,,,2022-06-06 21:46:57,17078
61729e07e7b9b645c1741ca9,ma_choice_v4_pilot4,61729e07e7b9b645c1741ca9,5,Quality of kitchen,-1,Very Good,Moderate,direction,2183,,,,,2022-06-06 21:46:58,17079
559d9916fdf99b1e2b2dc6b8,ma_choice_v4_pilot4,559d9916fdf99b1e2b2dc6b8,0,Closeness to parks,0,,,wad_att_rating,3365,,,,,2022-06-06 21:47:01,17080
559d9916fdf99b1e2b2dc6b8,ma_choice_v4_pilot4,559d9916fdf99b1e2b2dc6b8,5,Quality of kitchen,0,,,wad_att_rating,4259,,,,,2022-06-06 21:47:05,17081
61729e07e7b9b645c1741ca9,ma_choice_v4_pilot4,61729e07e7b9b645c1741ca9,8,Size of home,-1,1800 square feet,600 square feet,direction,2295,,,,,2022-06-06 21:47:05,17082
61729e07e7b9b645c1741ca9,ma_choice_v4_pilot4,61729e07e7b9b645c1741ca9,0,Closeness to parks,-1,30 min away,25 min away,direction,6246,,,,,2022-06-06 21:47:15,17083
559d9916fdf99b1e2b2dc6b8,ma_choice_v4_pilot4,559d9916fdf99b1e2b2dc6b8,0,Quality of heat/AC system,1,,,lex_att_rating,4616,,,,,2022-06-06 21:47:16,17084
5dcc5fee28e3148e8009491e,ma_choice_v4_pilot4,5dcc5fee28e3148e8009491e,0,Reputation of closest school,1,,,lex_att_rating,5457,,,,,2022-06-06 21:47:31,17085
61729e07e7b9b645c1741ca9,ma_choice_v4_pilot4,61729e07e7b9b645c1741ca9,1,Noise pollution,-1,Low,Moderate,direction,2126,,,,,2022-06-06 21:47:38,17086
5dcc5fee28e3148e8009491e,ma_choice_v4_pilot4,5dcc5fee28e3148e8009491e,0,Reputation of closest school,1,,,ew_att_rating,4397,,,,,2022-06-06 21:47:43,17087
61729e07e7b9b645c1741ca9,ma_choice_v4_pilot4,61729e07e7b9b645c1741ca9,4,Size of yard,-1,600 square feet,300 square feet,direction,2823,,,,,2022-06-06 21:47:45,17088
5c113ae4b7fb2f00011a6b7e,ma_choice_v4_pilot4,5c113ae4b7fb2f00011a6b7e,0,Quality of kitchen,1,,,lex_att_rating,7971,,,,,2022-06-06 21:47:50,17089
5dcc5fee28e3148e8009491e,ma_choice_v4_pilot4,5dcc5fee28e3148e8009491e,7,Amount of traffic,0,,,wad_att_rating,3683,,,,,2022-06-06 21:47:51,17090
61729e07e7b9b645c1741ca9,ma_choice_v4_pilot4,61729e07e7b9b645c1741ca9,6,Quality of heat/AC system,-1,Good,Moderate,direction,3391,,,,,2022-06-06 21:47:53,17091
5dcc5fee28e3148e8009491e,ma_choice_v4_pilot4,5dcc5fee28e3148e8009491e,2,Reputation of closest school,100,,,wad_att_rating,3095,,,,,2022-06-06 21:47:54,17092
5dcc5fee28e3148e8009491e,ma_choice_v4_pilot4,5dcc5fee28e3148e8009491e,0,Closeness to parks,0,,,wad_att_rating,2158,,,,,2022-06-06 21:47:56,17093
5c113ae4b7fb2f00011a6b7e,ma_choice_v4_pilot4,5c113ae4b7fb2f00011a6b7e,2,Reputation of closest school,61,,,wad_att_rating,4306,,,,,2022-06-06 21:47:57,17094
5dcc5fee28e3148e8009491e,ma_choice_v4_pilot4,5dcc5fee28e3148e8009491e,4,Size of yard,0,,,wad_att_rating,2436,,,,,2022-06-06 21:47:58,17095
5dcc5fee28e3148e8009491e,ma_choice_v4_pilot4,5dcc5fee28e3148e8009491e,5,Quality of kitchen,0,,,wad_att_rating,2053,,,,,2022-06-06 21:48:00,17096
5c113ae4b7fb2f00011a6b7e,ma_choice_v4_pilot4,5c113ae4b7fb2f00011a6b7e,1,Noise pollution,24,,,wad_att_rating,4375,,,,,2022-06-06 21:48:01,17097
61729e07e7b9b645c1741ca9,ma_choice_v4_pilot4,61729e07e7b9b645c1741ca9,7,Amount of traffic,-1,A Moderate Amount,A Little,direction,3943,,,,,2022-06-06 21:48:01,17098
5dcc5fee28e3148e8009491e,ma_choice_v4_pilot4,5dcc5fee28e3148e8009491e,1,Noise pollution,0,,,wad_att_rating,2486,,,,,2022-06-06 21:48:03,17099
5c113ae4b7fb2f00011a6b7e,ma_choice_v4_pilot4,5c113ae4b7fb2f00011a6b7e,6,Quality of heat/AC system,89,,,wad_att_rating,2538,,,,,2022-06-06 21:48:03,17100
5dcc5fee28e3148e8009491e,ma_choice_v4_pilot4,5dcc5fee28e3148e8009491e,6,Quality of heat/AC system,0,,,wad_att_rating,1980,,,,,2022-06-06 21:48:05,17101
5c113ae4b7fb2f00011a6b7e,ma_choice_v4_pilot4,5c113ae4b7fb2f00011a6b7e,3,Year building was built,0,,,wad_att_rating,2062,,,,,2022-06-06 21:48:06,17102
5dcc5fee28e3148e8009491e,ma_choice_v4_pilot4,5dcc5fee28e3148e8009491e,3,Year building was built,0,,,wad_att_rating,1881,,,,,2022-06-06 21:48:07,17103
5c113ae4b7fb2f00011a6b7e,ma_choice_v4_pilot4,5c113ae4b7fb2f00011a6b7e,8,Size of home,28,,,wad_att_rating,1946,,,,,2022-06-06 21:48:08,17104
5dcc5fee28e3148e8009491e,ma_choice_v4_pilot4,5dcc5fee28e3148e8009491e,8,Size of home,0,,,wad_att_rating,1678,,,,,2022-06-06 21:48:08,17105
5c113ae4b7fb2f00011a6b7e,ma_choice_v4_pilot4,5c113ae4b7fb2f00011a6b7e,4,Size of yard,75,,,wad_att_rating,2339,,,,,2022-06-06 21:48:10,17106
5f5353ff017c5965165df065,ma_choice_v4_pilot4,5f5353ff017c5965165df065,6,Quality of heat/AC system,55,,,wad_att_rating,19958,,,,,2022-06-06 21:48:10,17107
61021de77ce595ea8d427046,ma_choice_v4_pilot4,61021de77ce595ea8d427046,7,Amount of traffic,-1,A Moderate Amount,A Little,direction,5941,,,,,2022-06-06 21:48:11,17108
5c113ae4b7fb2f00011a6b7e,ma_choice_v4_pilot4,5c113ae4b7fb2f00011a6b7e,0,Closeness to parks,52,,,wad_att_rating,2533,,,,,2022-06-06 21:48:12,17109
5c113ae4b7fb2f00011a6b7e,ma_choice_v4_pilot4,5c113ae4b7fb2f00011a6b7e,5,Quality of kitchen,81,,,wad_att_rating,2159,,,,,2022-06-06 21:48:15,17110
5c113ae4b7fb2f00011a6b7e,ma_choice_v4_pilot4,5c113ae4b7fb2f00011a6b7e,7,Amount of traffic,28,,,wad_att_rating,1938,,,,,2022-06-06 21:48:16,17111
61021de77ce595ea8d427046,ma_choice_v4_pilot4,61021de77ce595ea8d427046,4,Size of yard,-1,600 square feet,300 square feet,direction,2118,,,,,2022-06-06 21:48:17,17112
5f5353ff017c5965165df065,ma_choice_v4_pilot4,5f5353ff017c5965165df065,4,Size of yard,71,,,wad_att_rating,15980,,,,,2022-06-06 21:48:26,17113
5c113ae4b7fb2f00011a6b7e,ma_choice_v4_pilot4,5c113ae4b7fb2f00011a6b7e,0,Quality of kitchen,1,,,ew_att_rating,6734,,,,,2022-06-06 21:48:28,17114
5c113ae4b7fb2f00011a6b7e,ma_choice_v4_pilot4,5c113ae4b7fb2f00011a6b7e,0,Quality of heat/AC system,1,,,ew_att_rating,6734,,,,,2022-06-06 21:48:28,17115
5c113ae4b7fb2f00011a6b7e,ma_choice_v4_pilot4,5c113ae4b7fb2f00011a6b7e,0,Reputation of closest school,1,,,ew_att_rating,6734,,,,,2022-06-06 21:48:28,17116
61021de77ce595ea8d427046,ma_choice_v4_pilot4,61021de77ce595ea8d427046,2,Reputation of closest school,-1,Good,Moderate,direction,7701,,,,,2022-06-06 21:48:29,17117
5f5353ff017c5965165df065,ma_choice_v4_pilot4,5f5353ff017c5965165df065,3,Year building was built,25,,,wad_att_rating,9265,,,,,2022-06-06 21:48:35,17118
61021de77ce595ea8d427046,ma_choice_v4_pilot4,61021de77ce595ea8d427046,0,Closeness to parks,-1,15 min away,30 min away,direction,4272,,,,,2022-06-06 21:48:37,17119
5f5353ff017c5965165df065,ma_choice_v4_pilot4,5f5353ff017c5965165df065,8,Size of home,88,,,wad_att_rating,6607,,,,,2022-06-06 21:48:42,17120
61021de77ce595ea8d427046,ma_choice_v4_pilot4,61021de77ce595ea8d427046,5,Quality of kitchen,-1,Very Good,Very Bad,direction,3718,,,,,2022-06-06 21:48:48,17121
5f5353ff017c5965165df065,ma_choice_v4_pilot4,5f5353ff017c5965165df065,5,Quality of kitchen,75,,,wad_att_rating,8251,,,,,2022-06-06 21:48:50,17122
5f5353ff017c5965165df065,ma_choice_v4_pilot4,5f5353ff017c5965165df065,1,Noise pollution,62,,,wad_att_rating,5322,,,,,2022-06-06 21:48:55,17123
5f5353ff017c5965165df065,ma_choice_v4_pilot4,5f5353ff017c5965165df065,0,Closeness to parks,6,,,wad_att_rating,8072,,,,,2022-06-06 21:49:04,17124
5f095db6fc8e5a1e2271dc47,ma_choice_v4_pilot4,5f095db6fc8e5a1e2271dc47,3,Year building was built,-1,2020,1950,direction,2281,,,,,2022-06-06 21:49:10,17125
5f5353ff017c5965165df065,ma_choice_v4_pilot4,5f5353ff017c5965165df065,7,Amount of traffic,44,,,wad_att_rating,7664,,,,,2022-06-06 21:49:11,17126
5f095db6fc8e5a1e2271dc47,ma_choice_v4_pilot4,5f095db6fc8e5a1e2271dc47,6,Quality of heat/AC system,-1,Very Good,Very Bad,direction,2944,,,,,2022-06-06 21:49:15,17127
