subject,version,assignmentId,trial,practice,opt1_id,opt2_id,attributes,opt1_values,opt2_values,choice,orig_choice,rt,stamp,id
6236e23a8d6071933a13bbfa,ma_choice_v4_social_pilot2,6236e23a8d6071933a13bbfa,0,1,-1,-1,"Duration,Number of other people present,Distance from home,Quality of socializing,Amount of food present,Amount of alcohol present,Quality of music playing","40 minutes,6 people,15 min away,Bad,A Lot,None,Very Good","80 minutes,11 people,45 min away,Very Good,None,A Lot,Moderate",0,,6618,2022-06-30 13:03:25,248012
6236e23a8d6071933a13bbfa,ma_choice_v4_social_pilot2,6236e23a8d6071933a13bbfa,1,1,-1,-1,"Duration,Number of other people present,Distance from home,Quality of socializing,Amount of food present,Amount of alcohol present,Quality of music playing","40 minutes,7 people,25 min away,Bad,A Moderate Amount,A Lot,Bad","90 minutes,9 people,55 min away,Good,None,None,Very Good",1,,7712,2022-06-30 13:03:34,248013
6236e23a8d6071933a13bbfa,ma_choice_v4_social_pilot2,6236e23a8d6071933a13bbfa,2,1,-1,-1,"Duration,Number of other people present,Distance from home,Quality of socializing,Amount of food present,Amount of alcohol present,Quality of music playing","70 minutes,3 people,20 min away,Very Bad,A Lot,A Moderate Amount,Good","90 minutes,6 people,30 min away,Good,A Little,None,Very Bad",1,,13866,2022-06-30 13:03:49,248014
6236e23a8d6071933a13bbfa,ma_choice_v4_social_pilot2,6236e23a8d6071933a13bbfa,3,1,-1,-1,"Duration,Number of other people present,Distance from home,Quality of socializing,Amount of food present,Amount of alcohol present,Quality of music playing","80 minutes,5 people,55 min away,Very Bad,A Moderate Amount,A Lot,Good","40 minutes,10 people,35 min away,Moderate,None,None,Very Bad",0,,11877,2022-06-30 13:04:02,248015
6236e23a8d6071933a13bbfa,ma_choice_v4_social_pilot2,6236e23a8d6071933a13bbfa,4,1,-1,-1,"Duration,Number of other people present,Distance from home,Quality of socializing,Amount of food present,Amount of alcohol present,Quality of music playing","80 minutes,3 people,55 min away,Moderate,None,A Little,Very Bad","60 minutes,9 people,35 min away,Very Good,A Moderate Amount,A Lot,Very Good",1,,7144,2022-06-30 13:04:10,248016
6236e23a8d6071933a13bbfa,ma_choice_v4_social_pilot2,6236e23a8d6071933a13bbfa,5,1,-1,-1,"Duration,Number of other people present,Distance from home,Quality of socializing,Amount of food present,Amount of alcohol present,Quality of music playing","70 minutes,4 people,40 min away,Bad,A Little,None,Bad","90 minutes,9 people,50 min away,Good,A Lot,A Lot,Good",1,,67680,2022-06-30 13:05:18,248017
6236e23a8d6071933a13bbfa,ma_choice_v4_social_pilot2,6236e23a8d6071933a13bbfa,6,1,-1,-1,"Duration,Number of other people present,Distance from home,Quality of socializing,Amount of food present,Amount of alcohol present,Quality of music playing","50 minutes,5 people,25 min away,Very Bad,None,A Little,Moderate","90 minutes,10 people,50 min away,Good,A Moderate Amount,A Lot,Very Bad",0,,16862,2022-06-30 13:05:36,248018
6236e23a8d6071933a13bbfa,ma_choice_v4_social_pilot2,6236e23a8d6071933a13bbfa,7,1,-1,-1,"Duration,Number of other people present,Distance from home,Quality of socializing,Amount of food present,Amount of alcohol present,Quality of music playing","80 minutes,4 people,45 min away,Bad,A Little,A Moderate Amount,Good","60 minutes,11 people,55 min away,Good,A Lot,None,Bad",0,,57735,2022-06-30 13:06:35,248019
6236e23a8d6071933a13bbfa,ma_choice_v4_social_pilot2,6236e23a8d6071933a13bbfa,8,1,-1,-1,"Duration,Number of other people present,Distance from home,Quality of socializing,Amount of food present,Amount of alcohol present,Quality of music playing","50 minutes,11 people,25 min away,Good,None,A Moderate Amount,Good","90 minutes,6 people,40 min away,Very Bad,A Lot,None,Bad",1,,13903,2022-06-30 13:06:49,248020
6236e23a8d6071933a13bbfa,ma_choice_v4_social_pilot2,6236e23a8d6071933a13bbfa,9,1,-1,-1,"Duration,Number of other people present,Distance from home,Quality of socializing,Amount of food present,Amount of alcohol present,Quality of music playing","70 minutes,11 people,15 min away,Very Bad,A Little,A Lot,Bad","90 minutes,3 people,40 min away,Moderate,A Lot,A Little,Good",0,,13840,2022-06-30 13:07:04,248021
5ea3aa462d77061c2a8fc5d6,ma_choice_v4_social_pilot2,5ea3aa462d77061c2a8fc5d6,0,1,-1,-1,"Number of other people present,Amount of alcohol present,Quality of music playing,Distance from home,Amount of food present,Duration,Quality of socializing","6 people,A Lot,Very Good,50 min away,A Moderate Amount,70 minutes,Good","4 people,None,Very Bad,5 min away,None,50 minutes,Bad",0,,3804,2022-06-30 13:33:37,248022
5ea3aa462d77061c2a8fc5d6,ma_choice_v4_social_pilot2,5ea3aa462d77061c2a8fc5d6,1,1,-1,-1,"Number of other people present,Amount of alcohol present,Quality of music playing,Distance from home,Amount of food present,Duration,Quality of socializing","7 people,A Lot,Very Bad,45 min away,A Little,40 minutes,Bad","3 people,A Little,Moderate,5 min away,A Lot,60 minutes,Very Good",0,,44411,2022-06-30 13:34:23,248023
5ea3aa462d77061c2a8fc5d6,ma_choice_v4_social_pilot2,5ea3aa462d77061c2a8fc5d6,2,1,-1,-1,"Number of other people present,Amount of alcohol present,Quality of music playing,Distance from home,Amount of food present,Duration,Quality of socializing","4 people,A Lot,Good,35 min away,A Little,70 minutes,Very Good","11 people,A Little,Bad,10 min away,A Lot,90 minutes,Moderate",0,,8261,2022-06-30 13:34:32,248024
5ea3aa462d77061c2a8fc5d6,ma_choice_v4_social_pilot2,5ea3aa462d77061c2a8fc5d6,3,1,-1,-1,"Number of other people present,Amount of alcohol present,Quality of music playing,Distance from home,Amount of food present,Duration,Quality of socializing","7 people,A Lot,Bad,55 min away,None,80 minutes,Moderate","5 people,A Little,Very Good,10 min away,A Moderate Amount,50 minutes,Very Bad",1,,2381,2022-06-30 13:34:35,248025
5ea3aa462d77061c2a8fc5d6,ma_choice_v4_social_pilot2,5ea3aa462d77061c2a8fc5d6,4,1,-1,-1,"Number of other people present,Amount of alcohol present,Quality of music playing,Distance from home,Amount of food present,Duration,Quality of socializing","7 people,None,Bad,25 min away,A Lot,90 minutes,Very Good","3 people,A Lot,Very Good,10 min away,A Little,70 minutes,Moderate",1,,1163,2022-06-30 13:34:37,248026
5ea3aa462d77061c2a8fc5d6,ma_choice_v4_social_pilot2,5ea3aa462d77061c2a8fc5d6,5,1,-1,-1,"Number of other people present,Amount of alcohol present,Quality of music playing,Distance from home,Amount of food present,Duration,Quality of socializing","10 people,A Little,Good,25 min away,None,80 minutes,Moderate","4 people,A Lot,Bad,40 min away,A Lot,40 minutes,Very Good",0,,758,2022-06-30 13:34:39,248027
5ea3aa462d77061c2a8fc5d6,ma_choice_v4_social_pilot2,5ea3aa462d77061c2a8fc5d6,6,1,-1,-1,"Number of other people present,Amount of alcohol present,Quality of music playing,Distance from home,Amount of food present,Duration,Quality of socializing","5 people,A Lot,Bad,40 min away,A Lot,60 minutes,Very Bad","11 people,A Little,Good,25 min away,None,40 minutes,Moderate",1,,792,2022-06-30 13:34:41,248028
5ea3aa462d77061c2a8fc5d6,ma_choice_v4_social_pilot2,5ea3aa462d77061c2a8fc5d6,7,1,-1,-1,"Number of other people present,Amount of alcohol present,Quality of music playing,Distance from home,Amount of food present,Duration,Quality of socializing","11 people,A Moderate Amount,Good,10 min away,A Lot,80 minutes,Bad","4 people,None,Very Bad,20 min away,A Little,60 minutes,Very Good",0,,989,2022-06-30 13:34:43,248029
5ea3aa462d77061c2a8fc5d6,ma_choice_v4_social_pilot2,5ea3aa462d77061c2a8fc5d6,8,1,-1,-1,"Number of other people present,Amount of alcohol present,Quality of music playing,Distance from home,Amount of food present,Duration,Quality of socializing","9 people,None,Good,25 min away,A Lot,30 minutes,Good","6 people,A Lot,Bad,10 min away,None,60 minutes,Bad",0,,840,2022-06-30 13:34:45,248030
5ea3aa462d77061c2a8fc5d6,ma_choice_v4_social_pilot2,5ea3aa462d77061c2a8fc5d6,9,1,-1,-1,"Number of other people present,Amount of alcohol present,Quality of music playing,Distance from home,Amount of food present,Duration,Quality of socializing","3 people,None,Very Bad,20 min away,A Lot,50 minutes,Moderate","5 people,A Lot,Moderate,5 min away,None,70 minutes,Very Bad",1,,1212,2022-06-30 13:34:47,248031
5ea3aa462d77061c2a8fc5d6,ma_choice_v4_social_pilot2,5ea3aa462d77061c2a8fc5d6,0,0,-1,-1,"Number of other people present,Amount of alcohol present,Quality of music playing,Distance from home,Amount of food present,Duration,Quality of socializing","5 people,A Little,Very Good,55 min away,A Moderate Amount,50 minutes,Moderate","3 people,A Lot,Moderate,25 min away,None,70 minutes,Very Bad",0,,15010,2022-06-30 13:35:17,248032
5ea3aa462d77061c2a8fc5d6,ma_choice_v4_social_pilot2,5ea3aa462d77061c2a8fc5d6,1,0,-1,-1,"Number of other people present,Amount of alcohol present,Quality of music playing,Distance from home,Amount of food present,Duration,Quality of socializing","5 people,A Moderate Amount,Good,30 min away,A Moderate Amount,70 minutes,Very Bad","11 people,None,Very Bad,40 min away,None,40 minutes,Good",0,,2203,2022-06-30 13:35:21,248033
5ea3aa462d77061c2a8fc5d6,ma_choice_v4_social_pilot2,5ea3aa462d77061c2a8fc5d6,2,0,-1,-1,"Number of other people present,Amount of alcohol present,Quality of music playing,Distance from home,Amount of food present,Duration,Quality of socializing","10 people,A Lot,Bad,50 min away,None,50 minutes,Very Bad","6 people,A Little,Very Good,15 min away,A Moderate Amount,70 minutes,Very Good",1,,1127,2022-06-30 13:35:23,248034
5ea3aa462d77061c2a8fc5d6,ma_choice_v4_social_pilot2,5ea3aa462d77061c2a8fc5d6,3,0,-1,-1,"Number of other people present,Amount of alcohol present,Quality of music playing,Distance from home,Amount of food present,Duration,Quality of socializing","8 people,None,Very Bad,35 min away,None,70 minutes,Very Good","11 people,A Moderate Amount,Good,60 min away,A Lot,40 minutes,Very Bad",1,,1544,2022-06-30 13:35:25,248035
5ea3aa462d77061c2a8fc5d6,ma_choice_v4_social_pilot2,5ea3aa462d77061c2a8fc5d6,4,0,-1,-1,"Number of other people present,Amount of alcohol present,Quality of music playing,Distance from home,Amount of food present,Duration,Quality of socializing","11 people,None,Very Good,45 min away,A Little,50 minutes,Moderate","9 people,A Moderate Amount,Very Bad,30 min away,A Lot,80 minutes,Very Good",0,,4120,2022-06-30 13:35:30,248036
5ea3aa462d77061c2a8fc5d6,ma_choice_v4_social_pilot2,5ea3aa462d77061c2a8fc5d6,5,0,-1,-1,"Number of other people present,Amount of alcohol present,Quality of music playing,Distance from home,Amount of food present,Duration,Quality of socializing","6 people,A Moderate Amount,Bad,20 min away,A Little,60 minutes,Very Bad","3 people,None,Very Good,40 min away,A Lot,40 minutes,Very Good",1,,925,2022-06-30 13:35:32,248037
5ea3aa462d77061c2a8fc5d6,ma_choice_v4_social_pilot2,5ea3aa462d77061c2a8fc5d6,6,0,-1,-1,"Number of other people present,Amount of alcohol present,Quality of music playing,Distance from home,Amount of food present,Duration,Quality of socializing","6 people,A Little,Very Bad,40 min away,A Little,50 minutes,Very Good","10 people,A Lot,Moderate,20 min away,A Lot,90 minutes,Very Bad",1,,999,2022-06-30 13:35:34,248038
5ea3aa462d77061c2a8fc5d6,ma_choice_v4_social_pilot2,5ea3aa462d77061c2a8fc5d6,7,0,-1,-1,"Number of other people present,Amount of alcohol present,Quality of music playing,Distance from home,Amount of food present,Duration,Quality of socializing","5 people,A Lot,Moderate,55 min away,A Moderate Amount,30 minutes,Good","7 people,None,Very Good,15 min away,None,90 minutes,Very Bad",1,,844,2022-06-30 13:35:36,248039
5ea3aa462d77061c2a8fc5d6,ma_choice_v4_social_pilot2,5ea3aa462d77061c2a8fc5d6,8,0,-1,-1,"Number of other people present,Amount of alcohol present,Quality of music playing,Distance from home,Amount of food present,Duration,Quality of socializing","7 people,A Lot,Bad,35 min away,A Moderate Amount,80 minutes,Very Bad","4 people,A Little,Good,25 min away,None,40 minutes,Moderate",1,,1183,2022-06-30 13:35:38,248040
5ea3aa462d77061c2a8fc5d6,ma_choice_v4_social_pilot2,5ea3aa462d77061c2a8fc5d6,9,0,-1,-1,"Number of other people present,Amount of alcohol present,Quality of music playing,Distance from home,Amount of food present,Duration,Quality of socializing","6 people,None,Moderate,5 min away,A Lot,40 minutes,Moderate","9 people,A Moderate Amount,Very Bad,35 min away,A Little,60 minutes,Very Bad",0,,3559,2022-06-30 13:35:43,248041
5ea3aa462d77061c2a8fc5d6,ma_choice_v4_social_pilot2,5ea3aa462d77061c2a8fc5d6,10,0,-1,-1,"Number of other people present,Amount of alcohol present,Quality of music playing,Distance from home,Amount of food present,Duration,Quality of socializing","4 people,A Moderate Amount,Very Good,10 min away,A Lot,50 minutes,Very Good","9 people,None,Bad,40 min away,A Little,70 minutes,Moderate",0,,1428,2022-06-30 13:35:45,248042
5ea3aa462d77061c2a8fc5d6,ma_choice_v4_social_pilot2,5ea3aa462d77061c2a8fc5d6,11,0,-1,-1,"Number of other people present,Amount of alcohol present,Quality of music playing,Distance from home,Amount of food present,Duration,Quality of socializing","6 people,A Little,Very Good,40 min away,None,60 minutes,Very Good","4 people,A Lot,Bad,25 min away,A Moderate Amount,40 minutes,Very Bad",0,,745,2022-06-30 13:35:47,248043
5ea3aa462d77061c2a8fc5d6,ma_choice_v4_social_pilot2,5ea3aa462d77061c2a8fc5d6,12,0,-1,-1,"Number of other people present,Amount of alcohol present,Quality of music playing,Distance from home,Amount of food present,Duration,Quality of socializing","9 people,A Lot,Very Good,55 min away,A Lot,40 minutes,Very Good","5 people,A Little,Very Bad,45 min away,None,60 minutes,Very Bad",0,,3382,2022-06-30 13:35:51,248044
5ea3aa462d77061c2a8fc5d6,ma_choice_v4_social_pilot2,5ea3aa462d77061c2a8fc5d6,13,0,-1,-1,"Number of other people present,Amount of alcohol present,Quality of music playing,Distance from home,Amount of food present,Duration,Quality of socializing","7 people,None,Good,30 min away,A Lot,80 minutes,Moderate","10 people,A Moderate Amount,Bad,20 min away,None,50 minutes,Very Bad",0,,995,2022-06-30 13:35:53,248045
5ea3aa462d77061c2a8fc5d6,ma_choice_v4_social_pilot2,5ea3aa462d77061c2a8fc5d6,14,0,-1,-1,"Number of other people present,Amount of alcohol present,Quality of music playing,Distance from home,Amount of food present,Duration,Quality of socializing","7 people,None,Bad,20 min away,A Lot,50 minutes,Good","11 people,A Moderate Amount,Very Good,35 min away,A Little,80 minutes,Bad",1,,960,2022-06-30 13:35:55,248046
5ea3aa462d77061c2a8fc5d6,ma_choice_v4_social_pilot2,5ea3aa462d77061c2a8fc5d6,15,0,-1,-1,"Number of other people present,Amount of alcohol present,Quality of music playing,Distance from home,Amount of food present,Duration,Quality of socializing","9 people,A Lot,Bad,55 min away,A Little,60 minutes,Good","7 people,A Little,Good,25 min away,A Lot,80 minutes,Very Bad",1,,795,2022-06-30 13:35:57,248047
5ea3aa462d77061c2a8fc5d6,ma_choice_v4_social_pilot2,5ea3aa462d77061c2a8fc5d6,16,0,-1,-1,"Number of other people present,Amount of alcohol present,Quality of music playing,Distance from home,Amount of food present,Duration,Quality of socializing","3 people,A Little,Good,40 min away,A Moderate Amount,70 minutes,Very Good","10 people,A Lot,Bad,55 min away,None,40 minutes,Bad",0,,1494,2022-06-30 13:36:00,248048
5ea3aa462d77061c2a8fc5d6,ma_choice_v4_social_pilot2,5ea3aa462d77061c2a8fc5d6,17,0,-1,-1,"Number of other people present,Amount of alcohol present,Quality of music playing,Distance from home,Amount of food present,Duration,Quality of socializing","7 people,None,Good,10 min away,A Moderate Amount,90 minutes,Bad","10 people,A Moderate Amount,Very Bad,40 min away,None,40 minutes,Good",0,,963,2022-06-30 13:36:02,248049
5ea3aa462d77061c2a8fc5d6,ma_choice_v4_social_pilot2,5ea3aa462d77061c2a8fc5d6,18,0,-1,-1,"Number of other people present,Amount of alcohol present,Quality of music playing,Distance from home,Amount of food present,Duration,Quality of socializing","9 people,A Lot,Very Bad,5 min away,None,70 minutes,Moderate","11 people,A Little,Good,25 min away,A Lot,50 minutes,Very Bad",1,,817,2022-06-30 13:36:04,248050
5ea3aa462d77061c2a8fc5d6,ma_choice_v4_social_pilot2,5ea3aa462d77061c2a8fc5d6,19,0,-1,-1,"Number of other people present,Amount of alcohol present,Quality of music playing,Distance from home,Amount of food present,Duration,Quality of socializing","6 people,A Lot,Very Good,50 min away,A Lot,80 minutes,Very Bad","8 people,None,Bad,40 min away,A Little,50 minutes,Very Good",0,,789,2022-06-30 13:36:05,248051
5ea3aa462d77061c2a8fc5d6,ma_choice_v4_social_pilot2,5ea3aa462d77061c2a8fc5d6,20,0,-1,-1,"Number of other people present,Amount of alcohol present,Quality of music playing,Distance from home,Amount of food present,Duration,Quality of socializing","3 people,None,Very Bad,50 min away,A Lot,80 minutes,Moderate","8 people,A Moderate Amount,Good,5 min away,None,30 minutes,Very Bad",1,,813,2022-06-30 13:36:07,248052
5ea3aa462d77061c2a8fc5d6,ma_choice_v4_social_pilot2,5ea3aa462d77061c2a8fc5d6,21,0,-1,-1,"Number of other people present,Amount of alcohol present,Quality of music playing,Distance from home,Amount of food present,Duration,Quality of socializing","6 people,A Little,Very Good,25 min away,A Lot,60 minutes,Moderate","8 people,A Lot,Very Bad,40 min away,None,80 minutes,Very Good",0,,776,2022-06-30 13:36:09,248053
5ea3aa462d77061c2a8fc5d6,ma_choice_v4_social_pilot2,5ea3aa462d77061c2a8fc5d6,22,0,-1,-1,"Number of other people present,Amount of alcohol present,Quality of music playing,Distance from home,Amount of food present,Duration,Quality of socializing","5 people,A Moderate Amount,Very Good,20 min away,A Moderate Amount,50 minutes,Moderate","8 people,None,Moderate,55 min away,None,70 minutes,Very Bad",0,,724,2022-06-30 13:36:11,248054
5ea3aa462d77061c2a8fc5d6,ma_choice_v4_social_pilot2,5ea3aa462d77061c2a8fc5d6,23,0,-1,-1,"Number of other people present,Amount of alcohol present,Quality of music playing,Distance from home,Amount of food present,Duration,Quality of socializing","8 people,A Lot,Bad,35 min away,A Little,30 minutes,Very Good","3 people,None,Good,10 min away,A Lot,80 minutes,Moderate",1,,869,2022-06-30 13:36:13,248055
5ea3aa462d77061c2a8fc5d6,ma_choice_v4_social_pilot2,5ea3aa462d77061c2a8fc5d6,24,0,-1,-1,"Number of other people present,Amount of alcohol present,Quality of music playing,Distance from home,Amount of food present,Duration,Quality of socializing","7 people,None,Very Good,55 min away,A Little,90 minutes,Good","10 people,A Moderate Amount,Very Bad,40 min away,A Lot,40 minutes,Bad",0,,756,2022-06-30 13:36:14,248056
5ea3aa462d77061c2a8fc5d6,ma_choice_v4_social_pilot2,5ea3aa462d77061c2a8fc5d6,25,0,-1,-1,"Number of other people present,Amount of alcohol present,Quality of music playing,Distance from home,Amount of food present,Duration,Quality of socializing","9 people,A Little,Moderate,55 min away,A Moderate Amount,80 minutes,Bad","6 people,A Lot,Very Bad,30 min away,None,40 minutes,Very Good",0,,1037,2022-06-30 13:36:16,248057
5ea3aa462d77061c2a8fc5d6,ma_choice_v4_social_pilot2,5ea3aa462d77061c2a8fc5d6,26,0,-1,-1,"Number of other people present,Amount of alcohol present,Quality of music playing,Distance from home,Amount of food present,Duration,Quality of socializing","3 people,None,Very Good,35 min away,None,90 minutes,Very Bad","10 people,A Moderate Amount,Very Bad,10 min away,A Moderate Amount,70 minutes,Good",0,,636,2022-06-30 13:36:18,248058
5ea3aa462d77061c2a8fc5d6,ma_choice_v4_social_pilot2,5ea3aa462d77061c2a8fc5d6,27,0,-1,-1,"Number of other people present,Amount of alcohol present,Quality of music playing,Distance from home,Amount of food present,Duration,Quality of socializing","4 people,A Moderate Amount,Very Bad,35 min away,A Little,90 minutes,Bad","8 people,None,Good,25 min away,A Lot,50 minutes,Good",1,,925,2022-06-30 13:36:20,248059
5ea3aa462d77061c2a8fc5d6,ma_choice_v4_social_pilot2,5ea3aa462d77061c2a8fc5d6,28,0,-1,-1,"Number of other people present,Amount of alcohol present,Quality of music playing,Distance from home,Amount of food present,Duration,Quality of socializing","5 people,None,Bad,60 min away,A Lot,50 minutes,Moderate","9 people,A Lot,Very Good,45 min away,A Little,30 minutes,Very Good",1,,844,2022-06-30 13:36:22,248060
5ea3aa462d77061c2a8fc5d6,ma_choice_v4_social_pilot2,5ea3aa462d77061c2a8fc5d6,29,0,-1,-1,"Number of other people present,Amount of alcohol present,Quality of music playing,Distance from home,Amount of food present,Duration,Quality of socializing","6 people,A Little,Very Good,25 min away,A Lot,90 minutes,Good","4 people,A Lot,Very Bad,10 min away,A Little,40 minutes,Very Bad",0,,690,2022-06-30 13:36:24,248061
5ea3aa462d77061c2a8fc5d6,ma_choice_v4_social_pilot2,5ea3aa462d77061c2a8fc5d6,30,0,-1,-1,"Number of other people present,Amount of alcohol present,Quality of music playing,Distance from home,Amount of food present,Duration,Quality of socializing","8 people,A Moderate Amount,Moderate,40 min away,A Moderate Amount,90 minutes,Very Bad","6 people,None,Very Bad,55 min away,None,40 minutes,Moderate",0,,1998,2022-06-30 13:36:27,248062
5ea3aa462d77061c2a8fc5d6,ma_choice_v4_social_pilot2,5ea3aa462d77061c2a8fc5d6,31,0,-1,-1,"Number of other people present,Amount of alcohol present,Quality of music playing,Distance from home,Amount of food present,Duration,Quality of socializing","6 people,A Little,Moderate,30 min away,None,70 minutes,Very Bad","8 people,A Lot,Very Bad,55 min away,A Moderate Amount,40 minutes,Very Good",0,,703,2022-06-30 13:36:28,248063
5ea3aa462d77061c2a8fc5d6,ma_choice_v4_social_pilot2,5ea3aa462d77061c2a8fc5d6,32,0,-1,-1,"Number of other people present,Amount of alcohol present,Quality of music playing,Distance from home,Amount of food present,Duration,Quality of socializing","9 people,A Little,Moderate,60 min away,A Lot,60 minutes,Moderate","6 people,A Lot,Very Bad,35 min away,A Little,40 minutes,Very Good",0,,578,2022-06-30 13:36:30,248064
5ea3aa462d77061c2a8fc5d6,ma_choice_v4_social_pilot2,5ea3aa462d77061c2a8fc5d6,33,0,-1,-1,"Number of other people present,Amount of alcohol present,Quality of music playing,Distance from home,Amount of food present,Duration,Quality of socializing","3 people,None,Moderate,35 min away,A Moderate Amount,50 minutes,Good","7 people,A Moderate Amount,Very Bad,55 min away,None,30 minutes,Very Bad",0,,596,2022-06-30 13:36:31,248065
5ea3aa462d77061c2a8fc5d6,ma_choice_v4_social_pilot2,5ea3aa462d77061c2a8fc5d6,34,0,-1,-1,"Number of other people present,Amount of alcohol present,Quality of music playing,Distance from home,Amount of food present,Duration,Quality of socializing","11 people,None,Good,10 min away,None,70 minutes,Bad","4 people,A Lot,Very Bad,20 min away,A Lot,50 minutes,Good",0,,1003,2022-06-30 13:36:33,248066
5ea3aa462d77061c2a8fc5d6,ma_choice_v4_social_pilot2,5ea3aa462d77061c2a8fc5d6,35,0,-1,-1,"Number of other people present,Amount of alcohol present,Quality of music playing,Distance from home,Amount of food present,Duration,Quality of socializing","11 people,None,Very Bad,45 min away,None,90 minutes,Bad","9 people,A Lot,Very Good,35 min away,A Moderate Amount,50 minutes,Very Good",1,,784,2022-06-30 13:36:35,248067
5ea3aa462d77061c2a8fc5d6,ma_choice_v4_social_pilot2,5ea3aa462d77061c2a8fc5d6,36,0,-1,-1,"Number of other people present,Amount of alcohol present,Quality of music playing,Distance from home,Amount of food present,Duration,Quality of socializing","8 people,A Little,Moderate,45 min away,A Lot,80 minutes,Very Bad","10 people,A Lot,Very Good,20 min away,None,50 minutes,Very Good",1,,803,2022-06-30 13:36:37,248068
5ea3aa462d77061c2a8fc5d6,ma_choice_v4_social_pilot2,5ea3aa462d77061c2a8fc5d6,37,0,-1,-1,"Number of other people present,Amount of alcohol present,Quality of music playing,Distance from home,Amount of food present,Duration,Quality of socializing","8 people,None,Moderate,30 min away,A Little,40 minutes,Very Good","11 people,A Lot,Very Good,10 min away,A Lot,70 minutes,Very Bad",1,,538,2022-06-30 13:36:39,248069
5ea3aa462d77061c2a8fc5d6,ma_choice_v4_social_pilot2,5ea3aa462d77061c2a8fc5d6,38,0,-1,-1,"Number of other people present,Amount of alcohol present,Quality of music playing,Distance from home,Amount of food present,Duration,Quality of socializing","3 people,A Lot,Moderate,45 min away,A Moderate Amount,80 minutes,Very Bad","8 people,None,Very Good,20 min away,None,60 minutes,Very Good",1,,644,2022-06-30 13:36:40,248070
5ea3aa462d77061c2a8fc5d6,ma_choice_v4_social_pilot2,5ea3aa462d77061c2a8fc5d6,39,0,-1,-1,"Number of other people present,Amount of alcohol present,Quality of music playing,Distance from home,Amount of food present,Duration,Quality of socializing","4 people,A Moderate Amount,Very Bad,35 min away,None,70 minutes,Good","7 people,None,Good,25 min away,A Moderate Amount,40 minutes,Bad",1,,685,2022-06-30 13:36:42,248071
5ea3aa462d77061c2a8fc5d6,ma_choice_v4_social_pilot2,5ea3aa462d77061c2a8fc5d6,40,0,-1,-1,"Number of other people present,Amount of alcohol present,Quality of music playing,Distance from home,Amount of food present,Duration,Quality of socializing","10 people,None,Moderate,15 min away,A Lot,80 minutes,Bad","7 people,A Moderate Amount,Very Good,45 min away,None,40 minutes,Very Good",1,,845,2022-06-30 13:36:44,248072
5ea3aa462d77061c2a8fc5d6,ma_choice_v4_social_pilot2,5ea3aa462d77061c2a8fc5d6,41,0,-1,-1,"Number of other people present,Amount of alcohol present,Quality of music playing,Distance from home,Amount of food present,Duration,Quality of socializing","10 people,A Lot,Moderate,50 min away,A Moderate Amount,90 minutes,Very Good","6 people,None,Very Good,25 min away,None,50 minutes,Moderate",1,,747,2022-06-30 13:36:46,248073
5ea3aa462d77061c2a8fc5d6,ma_choice_v4_social_pilot2,5ea3aa462d77061c2a8fc5d6,42,0,-1,-1,"Number of other people present,Amount of alcohol present,Quality of music playing,Distance from home,Amount of food present,Duration,Quality of socializing","8 people,A Moderate Amount,Good,20 min away,A Lot,80 minutes,Good","4 people,None,Bad,10 min away,None,50 minutes,Bad",0,,1405,2022-06-30 13:36:48,248074
5ea3aa462d77061c2a8fc5d6,ma_choice_v4_social_pilot2,5ea3aa462d77061c2a8fc5d6,43,0,-1,-1,"Number of other people present,Amount of alcohol present,Quality of music playing,Distance from home,Amount of food present,Duration,Quality of socializing","11 people,None,Very Bad,30 min away,A Moderate Amount,90 minutes,Very Good","7 people,A Lot,Very Good,55 min away,None,30 minutes,Very Bad",1,,862,2022-06-30 13:36:50,248075
5ea3aa462d77061c2a8fc5d6,ma_choice_v4_social_pilot2,5ea3aa462d77061c2a8fc5d6,44,0,-1,-1,"Number of other people present,Amount of alcohol present,Quality of music playing,Distance from home,Amount of food present,Duration,Quality of socializing","11 people,A Moderate Amount,Moderate,5 min away,A Little,40 minutes,Good","6 people,None,Very Bad,45 min away,A Lot,60 minutes,Bad",0,,922,2022-06-30 13:36:52,248076
5ea3aa462d77061c2a8fc5d6,ma_choice_v4_social_pilot2,5ea3aa462d77061c2a8fc5d6,45,0,-1,-1,"Number of other people present,Amount of alcohol present,Quality of music playing,Distance from home,Amount of food present,Duration,Quality of socializing","9 people,A Moderate Amount,Good,35 min away,A Moderate Amount,70 minutes,Very Bad","5 people,None,Bad,15 min away,None,40 minutes,Very Good",0,,805,2022-06-30 13:36:54,248077
5ea3aa462d77061c2a8fc5d6,ma_choice_v4_social_pilot2,5ea3aa462d77061c2a8fc5d6,46,0,-1,-1,"Number of other people present,Amount of alcohol present,Quality of music playing,Distance from home,Amount of food present,Duration,Quality of socializing","3 people,A Little,Bad,55 min away,A Lot,50 minutes,Very Bad","5 people,A Lot,Good,15 min away,None,30 minutes,Good",1,,650,2022-06-30 13:36:55,248078
5ea3aa462d77061c2a8fc5d6,ma_choice_v4_social_pilot2,5ea3aa462d77061c2a8fc5d6,47,0,-1,-1,"Number of other people present,Amount of alcohol present,Quality of music playing,Distance from home,Amount of food present,Duration,Quality of socializing","9 people,A Moderate Amount,Moderate,35 min away,None,50 minutes,Good","6 people,None,Very Good,10 min away,A Moderate Amount,90 minutes,Bad",1,,585,2022-06-30 13:36:57,248079
5ea3aa462d77061c2a8fc5d6,ma_choice_v4_social_pilot2,5ea3aa462d77061c2a8fc5d6,48,0,-1,-1,"Number of other people present,Amount of alcohol present,Quality of music playing,Distance from home,Amount of food present,Duration,Quality of socializing","8 people,None,Moderate,20 min away,A Little,70 minutes,Bad","3 people,A Moderate Amount,Very Bad,50 min away,A Lot,40 minutes,Very Good",0,,811,2022-06-30 13:36:59,248080
5ea3aa462d77061c2a8fc5d6,ma_choice_v4_social_pilot2,5ea3aa462d77061c2a8fc5d6,49,0,-1,-1,"Number of other people present,Amount of alcohol present,Quality of music playing,Distance from home,Amount of food present,Duration,Quality of socializing","8 people,A Lot,Very Bad,20 min away,A Lot,80 minutes,Very Bad","4 people,A Little,Moderate,45 min away,A Little,60 minutes,Good",1,,753,2022-06-30 13:37:00,248081
5ea3aa462d77061c2a8fc5d6,ma_choice_v4_social_pilot2,5ea3aa462d77061c2a8fc5d6,50,0,-1,-1,"Number of other people present,Amount of alcohol present,Quality of music playing,Distance from home,Amount of food present,Duration,Quality of socializing","8 people,None,Moderate,30 min away,A Moderate Amount,30 minutes,Good","6 people,A Lot,Very Good,60 min away,None,80 minutes,Bad",1,,717,2022-06-30 13:37:02,248082
5ea3aa462d77061c2a8fc5d6,ma_choice_v4_social_pilot2,5ea3aa462d77061c2a8fc5d6,51,0,-1,-1,"Number of other people present,Amount of alcohol present,Quality of music playing,Distance from home,Amount of food present,Duration,Quality of socializing","5 people,None,Very Bad,50 min away,A Moderate Amount,60 minutes,Very Good","7 people,A Lot,Good,35 min away,None,90 minutes,Bad",1,,541,2022-06-30 13:37:04,248083
5ea3aa462d77061c2a8fc5d6,ma_choice_v4_social_pilot2,5ea3aa462d77061c2a8fc5d6,52,0,-1,-1,"Number of other people present,Amount of alcohol present,Quality of music playing,Distance from home,Amount of food present,Duration,Quality of socializing","5 people,A Little,Moderate,45 min away,A Moderate Amount,40 minutes,Moderate","8 people,A Lot,Very Good,25 min away,None,80 minutes,Very Good",1,,585,2022-06-30 13:37:05,248084
5ea3aa462d77061c2a8fc5d6,ma_choice_v4_social_pilot2,5ea3aa462d77061c2a8fc5d6,53,0,-1,-1,"Number of other people present,Amount of alcohol present,Quality of music playing,Distance from home,Amount of food present,Duration,Quality of socializing","11 people,A Lot,Good,55 min away,None,70 minutes,Very Good","3 people,None,Very Bad,20 min away,A Lot,90 minutes,Moderate",0,,800,2022-06-30 13:37:07,248085
5ea3aa462d77061c2a8fc5d6,ma_choice_v4_social_pilot2,5ea3aa462d77061c2a8fc5d6,54,0,-1,-1,"Number of other people present,Amount of alcohol present,Quality of music playing,Distance from home,Amount of food present,Duration,Quality of socializing","5 people,A Little,Good,45 min away,A Lot,60 minutes,Good","3 people,A Lot,Bad,60 min away,A Little,80 minutes,Very Bad",0,,805,2022-06-30 13:37:09,248086
5ea3aa462d77061c2a8fc5d6,ma_choice_v4_social_pilot2,5ea3aa462d77061c2a8fc5d6,55,0,-1,-1,"Number of other people present,Amount of alcohol present,Quality of music playing,Distance from home,Amount of food present,Duration,Quality of socializing","6 people,A Lot,Good,55 min away,None,40 minutes,Moderate","8 people,A Little,Very Bad,45 min away,A Moderate Amount,80 minutes,Very Good",0,,972,2022-06-30 13:37:11,248087
5ea3aa462d77061c2a8fc5d6,ma_choice_v4_social_pilot2,5ea3aa462d77061c2a8fc5d6,56,0,-1,-1,"Number of other people present,Amount of alcohol present,Quality of music playing,Distance from home,Amount of food present,Duration,Quality of socializing","11 people,None,Very Bad,40 min away,A Moderate Amount,80 minutes,Good","8 people,A Moderate Amount,Very Good,55 min away,None,60 minutes,Very Bad",1,,867,2022-06-30 13:37:13,248088
5ea3aa462d77061c2a8fc5d6,ma_choice_v4_social_pilot2,5ea3aa462d77061c2a8fc5d6,57,0,-1,-1,"Number of other people present,Amount of alcohol present,Quality of music playing,Distance from home,Amount of food present,Duration,Quality of socializing","6 people,None,Very Bad,20 min away,A Lot,70 minutes,Very Bad","3 people,A Moderate Amount,Very Good,10 min away,None,30 minutes,Very Good",1,,515,2022-06-30 13:37:14,248089
5ea3aa462d77061c2a8fc5d6,ma_choice_v4_social_pilot2,5ea3aa462d77061c2a8fc5d6,58,0,-1,-1,"Number of other people present,Amount of alcohol present,Quality of music playing,Distance from home,Amount of food present,Duration,Quality of socializing","8 people,A Lot,Very Bad,30 min away,A Moderate Amount,30 minutes,Good","11 people,None,Good,45 min away,None,80 minutes,Bad",1,,988,2022-06-30 13:37:16,248090
5ea3aa462d77061c2a8fc5d6,ma_choice_v4_social_pilot2,5ea3aa462d77061c2a8fc5d6,59,0,-1,-1,"Number of other people present,Amount of alcohol present,Quality of music playing,Distance from home,Amount of food present,Duration,Quality of socializing","9 people,A Little,Moderate,55 min away,None,50 minutes,Bad","11 people,A Lot,Very Good,15 min away,A Moderate Amount,70 minutes,Good",1,,536,2022-06-30 13:37:18,248091
5ea3aa462d77061c2a8fc5d6,ma_choice_v4_social_pilot2,5ea3aa462d77061c2a8fc5d6,60,0,-1,-1,"Number of other people present,Amount of alcohol present,Quality of music playing,Distance from home,Amount of food present,Duration,Quality of socializing","10 people,A Moderate Amount,Very Good,40 min away,None,60 minutes,Bad","7 people,None,Very Bad,25 min away,A Moderate Amount,40 minutes,Good",0,,770,2022-06-30 13:37:20,248092
5ea3aa462d77061c2a8fc5d6,ma_choice_v4_social_pilot2,5ea3aa462d77061c2a8fc5d6,61,0,-1,-1,"Number of other people present,Amount of alcohol present,Quality of music playing,Distance from home,Amount of food present,Duration,Quality of socializing","9 people,None,Bad,10 min away,A Little,80 minutes,Good","5 people,A Lot,Good,55 min away,A Lot,40 minutes,Bad",1,,788,2022-06-30 13:37:21,248093
5ea3aa462d77061c2a8fc5d6,ma_choice_v4_social_pilot2,5ea3aa462d77061c2a8fc5d6,62,0,-1,-1,"Number of other people present,Amount of alcohol present,Quality of music playing,Distance from home,Amount of food present,Duration,Quality of socializing","10 people,A Little,Very Bad,35 min away,A Lot,30 minutes,Very Good","5 people,A Lot,Good,15 min away,A Little,80 minutes,Bad",1,,883,2022-06-30 13:37:23,248094
5ea3aa462d77061c2a8fc5d6,ma_choice_v4_social_pilot2,5ea3aa462d77061c2a8fc5d6,63,0,-1,-1,"Number of other people present,Amount of alcohol present,Quality of music playing,Distance from home,Amount of food present,Duration,Quality of socializing","5 people,A Lot,Good,20 min away,A Lot,50 minutes,Bad","10 people,A Little,Bad,10 min away,A Little,30 minutes,Good",0,,1275,2022-06-30 13:37:26,248095
5ea3aa462d77061c2a8fc5d6,ma_choice_v4_social_pilot2,5ea3aa462d77061c2a8fc5d6,64,0,-1,-1,"Number of other people present,Amount of alcohol present,Quality of music playing,Distance from home,Amount of food present,Duration,Quality of socializing","9 people,None,Good,10 min away,A Lot,50 minutes,Moderate","11 people,A Moderate Amount,Bad,40 min away,A Little,70 minutes,Very Bad",0,,817,2022-06-30 13:37:27,248096
5ea3aa462d77061c2a8fc5d6,ma_choice_v4_social_pilot2,5ea3aa462d77061c2a8fc5d6,65,0,-1,-1,"Number of other people present,Amount of alcohol present,Quality of music playing,Distance from home,Amount of food present,Duration,Quality of socializing","11 people,A Little,Bad,40 min away,A Little,40 minutes,Very Good","6 people,A Lot,Very Good,5 min away,A Lot,80 minutes,Moderate",1,,662,2022-06-30 13:37:29,248097
5ea3aa462d77061c2a8fc5d6,ma_choice_v4_social_pilot2,5ea3aa462d77061c2a8fc5d6,66,0,-1,-1,"Number of other people present,Amount of alcohol present,Quality of music playing,Distance from home,Amount of food present,Duration,Quality of socializing","4 people,A Little,Good,15 min away,A Lot,30 minutes,Very Bad","7 people,A Lot,Bad,5 min away,A Little,60 minutes,Good",0,,685,2022-06-30 13:37:31,248098
5ea3aa462d77061c2a8fc5d6,ma_choice_v4_social_pilot2,5ea3aa462d77061c2a8fc5d6,67,0,-1,-1,"Number of other people present,Amount of alcohol present,Quality of music playing,Distance from home,Amount of food present,Duration,Quality of socializing","5 people,A Lot,Good,10 min away,A Moderate Amount,80 minutes,Very Bad","8 people,A Little,Bad,50 min away,None,40 minutes,Very Good",0,,742,2022-06-30 13:37:32,248099
5ea3aa462d77061c2a8fc5d6,ma_choice_v4_social_pilot2,5ea3aa462d77061c2a8fc5d6,68,0,-1,-1,"Number of other people present,Amount of alcohol present,Quality of music playing,Distance from home,Amount of food present,Duration,Quality of socializing","11 people,A Lot,Good,50 min away,A Moderate Amount,60 minutes,Bad","4 people,None,Bad,10 min away,None,30 minutes,Good",0,,806,2022-06-30 13:37:34,248100
5ea3aa462d77061c2a8fc5d6,ma_choice_v4_social_pilot2,5ea3aa462d77061c2a8fc5d6,69,0,-1,-1,"Number of other people present,Amount of alcohol present,Quality of music playing,Distance from home,Amount of food present,Duration,Quality of socializing","4 people,A Moderate Amount,Moderate,20 min away,A Moderate Amount,50 minutes,Good","10 people,None,Very Good,35 min away,None,80 minutes,Bad",1,,1333,2022-06-30 13:37:37,248101
5ea3aa462d77061c2a8fc5d6,ma_choice_v4_social_pilot2,5ea3aa462d77061c2a8fc5d6,70,0,-1,-1,"Number of other people present,Amount of alcohol present,Quality of music playing,Distance from home,Amount of food present,Duration,Quality of socializing","9 people,A Little,Good,55 min away,A Little,40 minutes,Good","5 people,A Lot,Very Bad,45 min away,A Lot,80 minutes,Bad",0,,1843,2022-06-30 13:37:39,248102
5ea3aa462d77061c2a8fc5d6,ma_choice_v4_social_pilot2,5ea3aa462d77061c2a8fc5d6,71,0,-1,-1,"Number of other people present,Amount of alcohol present,Quality of music playing,Distance from home,Amount of food present,Duration,Quality of socializing","7 people,A Little,Moderate,5 min away,A Little,70 minutes,Good","9 people,A Lot,Very Good,35 min away,A Lot,40 minutes,Bad",1,,1225,2022-06-30 13:37:42,248103
5ea3aa462d77061c2a8fc5d6,ma_choice_v4_social_pilot2,5ea3aa462d77061c2a8fc5d6,72,0,-1,-1,"Number of other people present,Amount of alcohol present,Quality of music playing,Distance from home,Amount of food present,Duration,Quality of socializing","8 people,A Little,Good,50 min away,A Lot,40 minutes,Bad","3 people,A Lot,Bad,40 min away,A Little,80 minutes,Good",0,,1062,2022-06-30 13:37:44,248104
5ea3aa462d77061c2a8fc5d6,ma_choice_v4_social_pilot2,5ea3aa462d77061c2a8fc5d6,73,0,-1,-1,"Number of other people present,Amount of alcohol present,Quality of music playing,Distance from home,Amount of food present,Duration,Quality of socializing","4 people,A Lot,Good,45 min away,A Little,60 minutes,Moderate","11 people,None,Very Bad,10 min away,A Lot,90 minutes,Very Good",0,,1821,2022-06-30 13:37:47,248105
5ea3aa462d77061c2a8fc5d6,ma_choice_v4_social_pilot2,5ea3aa462d77061c2a8fc5d6,74,0,-1,-1,"Number of other people present,Amount of alcohol present,Quality of music playing,Distance from home,Amount of food present,Duration,Quality of socializing","8 people,A Moderate Amount,Moderate,45 min away,A Moderate Amount,80 minutes,Good","3 people,None,Very Bad,30 min away,None,30 minutes,Very Bad",0,,2721,2022-06-30 13:37:50,248106
5ea3aa462d77061c2a8fc5d6,ma_choice_v4_social_pilot2,5ea3aa462d77061c2a8fc5d6,75,0,-1,-1,"Number of other people present,Amount of alcohol present,Quality of music playing,Distance from home,Amount of food present,Duration,Quality of socializing","3 people,None,Very Bad,40 min away,A Little,40 minutes,Bad","6 people,A Moderate Amount,Good,10 min away,A Lot,70 minutes,Very Good",1,,1495,2022-06-30 13:37:53,248107
5ea3aa462d77061c2a8fc5d6,ma_choice_v4_social_pilot2,5ea3aa462d77061c2a8fc5d6,76,0,-1,-1,"Number of other people present,Amount of alcohol present,Quality of music playing,Distance from home,Amount of food present,Duration,Quality of socializing","3 people,A Lot,Very Bad,35 min away,None,80 minutes,Moderate","7 people,A Little,Good,25 min away,A Lot,50 minutes,Very Good",1,,7053,2022-06-30 13:38:01,248108
5ea3aa462d77061c2a8fc5d6,ma_choice_v4_social_pilot2,5ea3aa462d77061c2a8fc5d6,77,0,-1,-1,"Number of other people present,Amount of alcohol present,Quality of music playing,Distance from home,Amount of food present,Duration,Quality of socializing","8 people,None,Good,5 min away,A Little,50 minutes,Bad","10 people,A Moderate Amount,Bad,45 min away,A Lot,30 minutes,Very Good",0,,1067,2022-06-30 13:38:03,248109
5ea3aa462d77061c2a8fc5d6,ma_choice_v4_social_pilot2,5ea3aa462d77061c2a8fc5d6,78,0,-1,-1,"Number of other people present,Amount of alcohol present,Quality of music playing,Distance from home,Amount of food present,Duration,Quality of socializing","4 people,A Lot,Good,15 min away,A Lot,50 minutes,Very Bad","9 people,None,Bad,55 min away,A Little,80 minutes,Very Good",0,,702,2022-06-30 13:38:05,248110
5ea3aa462d77061c2a8fc5d6,ma_choice_v4_social_pilot2,5ea3aa462d77061c2a8fc5d6,79,0,-1,-1,"Number of other people present,Amount of alcohol present,Quality of music playing,Distance from home,Amount of food present,Duration,Quality of socializing","6 people,A Little,Very Good,15 min away,None,40 minutes,Very Good","10 people,A Lot,Very Bad,30 min away,A Moderate Amount,60 minutes,Moderate",0,,830,2022-06-30 13:38:07,248111
5ea3aa462d77061c2a8fc5d6,ma_choice_v4_social_pilot2,5ea3aa462d77061c2a8fc5d6,80,0,-1,-1,"Number of other people present,Amount of alcohol present,Quality of music playing,Distance from home,Amount of food present,Duration,Quality of socializing","4 people,None,Moderate,40 min away,A Little,50 minutes,Very Good","9 people,A Moderate Amount,Very Good,5 min away,A Lot,30 minutes,Bad",1,,892,2022-06-30 13:38:08,248112
5ea3aa462d77061c2a8fc5d6,ma_choice_v4_social_pilot2,5ea3aa462d77061c2a8fc5d6,81,0,-1,-1,"Number of other people present,Amount of alcohol present,Quality of music playing,Distance from home,Amount of food present,Duration,Quality of socializing","6 people,None,Very Good,35 min away,A Moderate Amount,40 minutes,Bad","3 people,A Moderate Amount,Very Bad,50 min away,None,80 minutes,Good",0,,860,2022-06-30 13:38:10,248113
5ea3aa462d77061c2a8fc5d6,ma_choice_v4_social_pilot2,5ea3aa462d77061c2a8fc5d6,82,0,-1,-1,"Number of other people present,Amount of alcohol present,Quality of music playing,Distance from home,Amount of food present,Duration,Quality of socializing","3 people,None,Good,50 min away,A Lot,30 minutes,Bad","9 people,A Lot,Bad,35 min away,A Little,60 minutes,Very Good",0,,607,2022-06-30 13:38:12,248114
5ea3aa462d77061c2a8fc5d6,ma_choice_v4_social_pilot2,5ea3aa462d77061c2a8fc5d6,83,0,-1,-1,"Number of other people present,Amount of alcohol present,Quality of music playing,Distance from home,Amount of food present,Duration,Quality of socializing","10 people,A Lot,Very Good,50 min away,A Lot,40 minutes,Moderate","8 people,None,Bad,5 min away,None,90 minutes,Very Bad",0,,576,2022-06-30 13:38:13,248115
5ea3aa462d77061c2a8fc5d6,ma_choice_v4_social_pilot2,5ea3aa462d77061c2a8fc5d6,84,0,-1,-1,"Number of other people present,Amount of alcohol present,Quality of music playing,Distance from home,Amount of food present,Duration,Quality of socializing","5 people,A Moderate Amount,Bad,35 min away,None,50 minutes,Very Good","7 people,None,Good,45 min away,A Moderate Amount,80 minutes,Bad",1,,843,2022-06-30 13:38:16,248116
5ea3aa462d77061c2a8fc5d6,ma_choice_v4_social_pilot2,5ea3aa462d77061c2a8fc5d6,85,0,-1,-1,"Number of other people present,Amount of alcohol present,Quality of music playing,Distance from home,Amount of food present,Duration,Quality of socializing","11 people,None,Moderate,15 min away,A Moderate Amount,70 minutes,Bad","7 people,A Moderate Amount,Very Good,50 min away,None,30 minutes,Very Good",1,,774,2022-06-30 13:38:17,248117
5ea3aa462d77061c2a8fc5d6,ma_choice_v4_social_pilot2,5ea3aa462d77061c2a8fc5d6,86,0,-1,-1,"Number of other people present,Amount of alcohol present,Quality of music playing,Distance from home,Amount of food present,Duration,Quality of socializing","10 people,A Little,Very Good,35 min away,A Moderate Amount,50 minutes,Very Bad","7 people,A Lot,Very Bad,25 min away,None,80 minutes,Very Good",0,,687,2022-06-30 13:38:19,248118
5ea3aa462d77061c2a8fc5d6,ma_choice_v4_social_pilot2,5ea3aa462d77061c2a8fc5d6,87,0,-1,-1,"Number of other people present,Amount of alcohol present,Quality of music playing,Distance from home,Amount of food present,Duration,Quality of socializing","10 people,A Moderate Amount,Bad,15 min away,A Little,50 minutes,Very Good","7 people,None,Very Good,55 min away,A Lot,80 minutes,Moderate",1,,671,2022-06-30 13:38:21,248119
5ea3aa462d77061c2a8fc5d6,ma_choice_v4_social_pilot2,5ea3aa462d77061c2a8fc5d6,88,0,-1,-1,"Number of other people present,Amount of alcohol present,Quality of music playing,Distance from home,Amount of food present,Duration,Quality of socializing","8 people,A Little,Very Good,5 min away,A Lot,60 minutes,Very Good","4 people,A Lot,Moderate,40 min away,A Little,40 minutes,Very Bad",0,,741,2022-06-30 13:38:22,248120
5ea3aa462d77061c2a8fc5d6,ma_choice_v4_social_pilot2,5ea3aa462d77061c2a8fc5d6,89,0,-1,-1,"Number of other people present,Amount of alcohol present,Quality of music playing,Distance from home,Amount of food present,Duration,Quality of socializing","3 people,None,Bad,20 min away,A Moderate Amount,70 minutes,Very Bad","11 people,A Moderate Amount,Good,50 min away,None,40 minutes,Good",1,,689,2022-06-30 13:38:24,248121
5ea3aa462d77061c2a8fc5d6,ma_choice_v4_social_pilot2,5ea3aa462d77061c2a8fc5d6,90,0,-1,-1,"Number of other people present,Amount of alcohol present,Quality of music playing,Distance from home,Amount of food present,Duration,Quality of socializing","7 people,A Lot,Very Bad,10 min away,A Lot,50 minutes,Very Good","11 people,A Little,Good,45 min away,A Little,80 minutes,Bad",1,,627,2022-06-30 13:38:26,248122
5ea3aa462d77061c2a8fc5d6,ma_choice_v4_social_pilot2,5ea3aa462d77061c2a8fc5d6,91,0,-1,-1,"Number of other people present,Amount of alcohol present,Quality of music playing,Distance from home,Amount of food present,Duration,Quality of socializing","9 people,A Little,Moderate,25 min away,A Little,60 minutes,Good","3 people,A Lot,Very Bad,15 min away,A Lot,80 minutes,Very Bad",0,,864,2022-06-30 13:38:27,248123
5ea3aa462d77061c2a8fc5d6,ma_choice_v4_social_pilot2,5ea3aa462d77061c2a8fc5d6,92,0,-1,-1,"Number of other people present,Amount of alcohol present,Quality of music playing,Distance from home,Amount of food present,Duration,Quality of socializing","4 people,A Lot,Moderate,45 min away,A Moderate Amount,50 minutes,Very Good","10 people,None,Very Good,15 min away,None,80 minutes,Very Bad",1,,660,2022-06-30 13:38:29,248124
5ea3aa462d77061c2a8fc5d6,ma_choice_v4_social_pilot2,5ea3aa462d77061c2a8fc5d6,93,0,-1,-1,"Number of other people present,Amount of alcohol present,Quality of music playing,Distance from home,Amount of food present,Duration,Quality of socializing","10 people,A Lot,Very Bad,35 min away,A Little,90 minutes,Very Bad","3 people,None,Moderate,25 min away,A Lot,40 minutes,Very Good",1,,805,2022-06-30 13:38:31,248125
5ea3aa462d77061c2a8fc5d6,ma_choice_v4_social_pilot2,5ea3aa462d77061c2a8fc5d6,94,0,-1,-1,"Number of other people present,Amount of alcohol present,Quality of music playing,Distance from home,Amount of food present,Duration,Quality of socializing","4 people,A Moderate Amount,Good,50 min away,A Little,90 minutes,Bad","9 people,None,Bad,60 min away,A Lot,40 minutes,Very Good",0,,787,2022-06-30 13:38:33,248126
5ea3aa462d77061c2a8fc5d6,ma_choice_v4_social_pilot2,5ea3aa462d77061c2a8fc5d6,95,0,-1,-1,"Number of other people present,Amount of alcohol present,Quality of music playing,Distance from home,Amount of food present,Duration,Quality of socializing","4 people,A Lot,Moderate,50 min away,None,50 minutes,Good","7 people,None,Very Bad,5 min away,A Moderate Amount,30 minutes,Very Bad",0,,741,2022-06-30 13:38:34,248127
5ea3aa462d77061c2a8fc5d6,ma_choice_v4_social_pilot2,5ea3aa462d77061c2a8fc5d6,96,0,-1,-1,"Number of other people present,Amount of alcohol present,Quality of music playing,Distance from home,Amount of food present,Duration,Quality of socializing","8 people,A Lot,Moderate,30 min away,A Lot,40 minutes,Very Good","10 people,A Little,Very Good,50 min away,None,60 minutes,Very Bad",1,,897,2022-06-30 13:38:36,248128
5ea3aa462d77061c2a8fc5d6,ma_choice_v4_social_pilot2,5ea3aa462d77061c2a8fc5d6,97,0,-1,-1,"Number of other people present,Amount of alcohol present,Quality of music playing,Distance from home,Amount of food present,Duration,Quality of socializing","10 people,A Moderate Amount,Very Good,60 min away,A Lot,70 minutes,Moderate","7 people,None,Bad,25 min away,None,90 minutes,Very Good",0,,785,2022-06-30 13:38:38,248129
5ea3aa462d77061c2a8fc5d6,ma_choice_v4_social_pilot2,5ea3aa462d77061c2a8fc5d6,98,0,-1,-1,"Number of other people present,Amount of alcohol present,Quality of music playing,Distance from home,Amount of food present,Duration,Quality of socializing","9 people,A Lot,Good,10 min away,None,50 minutes,Bad","7 people,A Little,Very Bad,30 min away,A Lot,80 minutes,Good",0,,1006,2022-06-30 13:38:40,248130
5ea3aa462d77061c2a8fc5d6,ma_choice_v4_social_pilot2,5ea3aa462d77061c2a8fc5d6,99,0,-1,-1,"Number of other people present,Amount of alcohol present,Quality of music playing,Distance from home,Amount of food present,Duration,Quality of socializing","8 people,A Little,Good,20 min away,A Little,50 minutes,Good","11 people,A Lot,Bad,45 min away,A Lot,90 minutes,Bad",0,,1074,2022-06-30 13:38:42,248131
6023d6c2657c850454e5a276,ma_choice_v4_social_pilot2,6023d6c2657c850454e5a276,0,1,-1,-1,"Amount of alcohol present,Distance from home,Quality of music playing,Duration,Quality of socializing,Amount of food present,Number of other people present","A Little,50 min away,Very Good,90 minutes,Bad,A Little,6 people","A Lot,30 min away,Very Bad,50 minutes,Very Good,A Lot,4 people",1,,10079,2022-06-30 13:43:39,248132
6023d6c2657c850454e5a276,ma_choice_v4_social_pilot2,6023d6c2657c850454e5a276,1,1,-1,-1,"Amount of alcohol present,Distance from home,Quality of music playing,Duration,Quality of socializing,Amount of food present,Number of other people present","A Lot,25 min away,Moderate,50 minutes,Moderate,A Little,4 people","A Little,35 min away,Very Bad,80 minutes,Very Bad,A Lot,10 people",0,,11241,2022-06-30 13:43:51,248133
6023d6c2657c850454e5a276,ma_choice_v4_social_pilot2,6023d6c2657c850454e5a276,2,1,-1,-1,"Amount of alcohol present,Distance from home,Quality of music playing,Duration,Quality of socializing,Amount of food present,Number of other people present","A Little,35 min away,Bad,90 minutes,Very Good,None,3 people","A Lot,15 min away,Very Good,60 minutes,Very Bad,A Moderate Amount,8 people",1,,11596,2022-06-30 13:44:04,248134
6023d6c2657c850454e5a276,ma_choice_v4_social_pilot2,6023d6c2657c850454e5a276,3,1,-1,-1,"Amount of alcohol present,Distance from home,Quality of music playing,Duration,Quality of socializing,Amount of food present,Number of other people present","A Little,20 min away,Very Bad,70 minutes,Moderate,A Little,10 people","A Lot,50 min away,Very Good,40 minutes,Very Bad,A Lot,3 people",0,,17329,2022-06-30 13:44:22,248135
6023d6c2657c850454e5a276,ma_choice_v4_social_pilot2,6023d6c2657c850454e5a276,4,1,-1,-1,"Amount of alcohol present,Distance from home,Quality of music playing,Duration,Quality of socializing,Amount of food present,Number of other people present","None,20 min away,Very Bad,60 minutes,Very Bad,A Little,9 people","A Lot,50 min away,Moderate,90 minutes,Very Good,A Lot,7 people",1,,25332,2022-06-30 13:44:48,248136
6023d6c2657c850454e5a276,ma_choice_v4_social_pilot2,6023d6c2657c850454e5a276,5,1,-1,-1,"Amount of alcohol present,Distance from home,Quality of music playing,Duration,Quality of socializing,Amount of food present,Number of other people present","None,10 min away,Moderate,70 minutes,Good,A Lot,8 people","A Lot,35 min away,Very Good,30 minutes,Bad,A Little,6 people",0,,6926,2022-06-30 13:44:56,248137
6023d6c2657c850454e5a276,ma_choice_v4_social_pilot2,6023d6c2657c850454e5a276,6,1,-1,-1,"Amount of alcohol present,Distance from home,Quality of music playing,Duration,Quality of socializing,Amount of food present,Number of other people present","A Lot,55 min away,Moderate,60 minutes,Very Bad,None,4 people","A Little,25 min away,Very Bad,40 minutes,Moderate,A Lot,8 people",1,,13338,2022-06-30 13:45:11,248138
6023d6c2657c850454e5a276,ma_choice_v4_social_pilot2,6023d6c2657c850454e5a276,7,1,-1,-1,"Amount of alcohol present,Distance from home,Quality of music playing,Duration,Quality of socializing,Amount of food present,Number of other people present","A Lot,50 min away,Good,90 minutes,Very Bad,A Moderate Amount,10 people","None,25 min away,Bad,70 minutes,Good,None,8 people",0,,12970,2022-06-30 13:45:25,248139
6023d6c2657c850454e5a276,ma_choice_v4_social_pilot2,6023d6c2657c850454e5a276,8,1,-1,-1,"Amount of alcohol present,Distance from home,Quality of music playing,Duration,Quality of socializing,Amount of food present,Number of other people present","None,20 min away,Very Good,80 minutes,Good,None,3 people","A Lot,45 min away,Very Bad,50 minutes,Bad,A Lot,10 people",0,,12319,2022-06-30 13:45:38,248140
5c6f2ab29d7a310001470418,ma_choice_v4_social_pilot2,5c6f2ab29d7a310001470418,0,1,-1,-1,"Number of other people present,Quality of socializing,Distance from home,Quality of music playing,Amount of food present,Duration,Amount of alcohol present","8 people,Moderate,35 min away,Very Good,A Lot,80 minutes,None","5 people,Very Bad,5 min away,Moderate,None,30 minutes,A Moderate Amount",0,,19048,2022-06-30 13:45:51,248141
6023d6c2657c850454e5a276,ma_choice_v4_social_pilot2,6023d6c2657c850454e5a276,9,1,-1,-1,"Amount of alcohol present,Distance from home,Quality of music playing,Duration,Quality of socializing,Amount of food present,Number of other people present","A Little,60 min away,Bad,60 minutes,Very Good,A Moderate Amount,3 people","A Lot,20 min away,Good,40 minutes,Very Bad,None,5 people",1,,19929,2022-06-30 13:45:59,248142
5c6f2ab29d7a310001470418,ma_choice_v4_social_pilot2,5c6f2ab29d7a310001470418,1,1,-1,-1,"Number of other people present,Quality of socializing,Distance from home,Quality of music playing,Amount of food present,Duration,Amount of alcohol present","3 people,Bad,25 min away,Very Good,A Lot,80 minutes,None","9 people,Good,10 min away,Very Bad,A Little,60 minutes,A Lot",1,,20447,2022-06-30 13:46:13,248143
5c6f2ab29d7a310001470418,ma_choice_v4_social_pilot2,5c6f2ab29d7a310001470418,2,1,-1,-1,"Number of other people present,Quality of socializing,Distance from home,Quality of music playing,Amount of food present,Duration,Amount of alcohol present","5 people,Very Good,35 min away,Bad,None,70 minutes,A Lot","10 people,Moderate,50 min away,Very Good,A Moderate Amount,30 minutes,A Little",1,,13168,2022-06-30 13:46:27,248144
6023d6c2657c850454e5a276,ma_choice_v4_social_pilot2,6023d6c2657c850454e5a276,0,0,-1,-1,"Amount of alcohol present,Distance from home,Quality of music playing,Duration,Quality of socializing,Amount of food present,Number of other people present","A Little,50 min away,Bad,70 minutes,Good,A Moderate Amount,9 people","A Lot,40 min away,Good,90 minutes,Very Bad,None,6 people",0,,16210,2022-06-30 13:46:33,248145
5c6f2ab29d7a310001470418,ma_choice_v4_social_pilot2,5c6f2ab29d7a310001470418,3,1,-1,-1,"Number of other people present,Quality of socializing,Distance from home,Quality of music playing,Amount of food present,Duration,Amount of alcohol present","8 people,Good,50 min away,Moderate,None,60 minutes,A Little","4 people,Very Bad,40 min away,Very Good,A Moderate Amount,40 minutes,A Lot",1,,12438,2022-06-30 13:46:40,248146
6023d6c2657c850454e5a276,ma_choice_v4_social_pilot2,6023d6c2657c850454e5a276,1,0,-1,-1,"Amount of alcohol present,Distance from home,Quality of music playing,Duration,Quality of socializing,Amount of food present,Number of other people present","None,40 min away,Bad,40 minutes,Very Bad,A Moderate Amount,5 people","A Moderate Amount,50 min away,Very Good,70 minutes,Good,None,11 people",1,,10128,2022-06-30 13:46:44,248147
6023d6c2657c850454e5a276,ma_choice_v4_social_pilot2,6023d6c2657c850454e5a276,2,0,-1,-1,"Amount of alcohol present,Distance from home,Quality of music playing,Duration,Quality of socializing,Amount of food present,Number of other people present","A Moderate Amount,45 min away,Very Good,60 minutes,Very Bad,None,8 people","None,30 min away,Moderate,80 minutes,Very Good,A Lot,11 people",1,,8316,2022-06-30 13:46:53,248148
5c6f2ab29d7a310001470418,ma_choice_v4_social_pilot2,5c6f2ab29d7a310001470418,4,1,-1,-1,"Number of other people present,Quality of socializing,Distance from home,Quality of music playing,Amount of food present,Duration,Amount of alcohol present","11 people,Very Good,20 min away,Moderate,A Little,60 minutes,A Lot","6 people,Bad,55 min away,Very Bad,A Lot,40 minutes,A Little",0,,12131,2022-06-30 13:46:54,248149
5c6f2ab29d7a310001470418,ma_choice_v4_social_pilot2,5c6f2ab29d7a310001470418,5,1,-1,-1,"Number of other people present,Quality of socializing,Distance from home,Quality of music playing,Amount of food present,Duration,Amount of alcohol present","5 people,Good,40 min away,Bad,None,40 minutes,A Moderate Amount","10 people,Bad,15 min away,Very Good,A Moderate Amount,80 minutes,None",1,,9745,2022-06-30 13:47:04,248150
6023d6c2657c850454e5a276,ma_choice_v4_social_pilot2,6023d6c2657c850454e5a276,3,0,-1,-1,"Amount of alcohol present,Distance from home,Quality of music playing,Duration,Quality of socializing,Amount of food present,Number of other people present","A Lot,5 min away,Good,60 minutes,Moderate,A Lot,5 people","None,50 min away,Bad,90 minutes,Very Bad,A Little,9 people",0,,13348,2022-06-30 13:47:08,248151
5c6f2ab29d7a310001470418,ma_choice_v4_social_pilot2,5c6f2ab29d7a310001470418,6,1,-1,-1,"Number of other people present,Quality of socializing,Distance from home,Quality of music playing,Amount of food present,Duration,Amount of alcohol present","8 people,Very Good,45 min away,Very Bad,A Moderate Amount,60 minutes,A Lot","11 people,Bad,35 min away,Moderate,None,40 minutes,None",0,,14220,2022-06-30 13:47:20,248152
6023d6c2657c850454e5a276,ma_choice_v4_social_pilot2,6023d6c2657c850454e5a276,4,0,-1,-1,"Amount of alcohol present,Distance from home,Quality of music playing,Duration,Quality of socializing,Amount of food present,Number of other people present","A Little,25 min away,Moderate,40 minutes,Moderate,None,5 people","A Lot,40 min away,Very Bad,70 minutes,Very Bad,A Moderate Amount,10 people",1,,12512,2022-06-30 13:47:21,248153
5c6f2ab29d7a310001470418,ma_choice_v4_social_pilot2,5c6f2ab29d7a310001470418,7,1,-1,-1,"Number of other people present,Quality of socializing,Distance from home,Quality of music playing,Amount of food present,Duration,Amount of alcohol present","5 people,Very Good,5 min away,Moderate,None,50 minutes,A Little","11 people,Bad,50 min away,Very Good,A Lot,90 minutes,A Lot",0,,13959,2022-06-30 13:47:34,248154
6023d6c2657c850454e5a276,ma_choice_v4_social_pilot2,6023d6c2657c850454e5a276,5,0,-1,-1,"Amount of alcohol present,Distance from home,Quality of music playing,Duration,Quality of socializing,Amount of food present,Number of other people present","A Moderate Amount,5 min away,Moderate,90 minutes,Very Good,A Little,8 people","None,55 min away,Very Bad,50 minutes,Very Bad,A Lot,4 people",0,,12517,2022-06-30 13:47:35,248155
6023d6c2657c850454e5a276,ma_choice_v4_social_pilot2,6023d6c2657c850454e5a276,6,0,-1,-1,"Amount of alcohol present,Distance from home,Quality of music playing,Duration,Quality of socializing,Amount of food present,Number of other people present","A Lot,15 min away,Very Good,50 minutes,Very Good,None,4 people","None,5 min away,Bad,30 minutes,Bad,A Lot,9 people",0,,7626,2022-06-30 13:47:43,248156
5c6f2ab29d7a310001470418,ma_choice_v4_social_pilot2,5c6f2ab29d7a310001470418,8,1,-1,-1,"Number of other people present,Quality of socializing,Distance from home,Quality of music playing,Amount of food present,Duration,Amount of alcohol present","11 people,Very Bad,35 min away,Bad,A Moderate Amount,50 minutes,None","6 people,Very Good,25 min away,Good,None,70 minutes,A Lot",1,,10037,2022-06-30 13:47:46,248157
5c6f2ab29d7a310001470418,ma_choice_v4_social_pilot2,5c6f2ab29d7a310001470418,9,1,-1,-1,"Number of other people present,Quality of socializing,Distance from home,Quality of music playing,Amount of food present,Duration,Amount of alcohol present","4 people,Moderate,10 min away,Moderate,A Moderate Amount,30 minutes,A Lot","11 people,Very Bad,45 min away,Very Good,None,90 minutes,A Little",1,,8320,2022-06-30 13:47:55,248158
6023d6c2657c850454e5a276,ma_choice_v4_social_pilot2,6023d6c2657c850454e5a276,7,0,-1,-1,"Amount of alcohol present,Distance from home,Quality of music playing,Duration,Quality of socializing,Amount of food present,Number of other people present","None,40 min away,Very Good,70 minutes,Good,A Moderate Amount,5 people","A Lot,25 min away,Very Bad,50 minutes,Very Bad,None,7 people",0,,16858,2022-06-30 13:48:01,248159
6023d6c2657c850454e5a276,ma_choice_v4_social_pilot2,6023d6c2657c850454e5a276,8,0,-1,-1,"Amount of alcohol present,Distance from home,Quality of music playing,Duration,Quality of socializing,Amount of food present,Number of other people present","A Moderate Amount,20 min away,Moderate,40 minutes,Very Bad,None,11 people","None,55 min away,Very Good,80 minutes,Very Good,A Moderate Amount,6 people",1,,19364,2022-06-30 13:48:22,248160
5c6f2ab29d7a310001470418,ma_choice_v4_social_pilot2,5c6f2ab29d7a310001470418,0,0,-1,-1,"Number of other people present,Quality of socializing,Distance from home,Quality of music playing,Amount of food present,Duration,Amount of alcohol present","3 people,Very Good,50 min away,Very Good,A Lot,30 minutes,A Little","10 people,Very Bad,10 min away,Very Bad,None,50 minutes,A Lot",0,,6772,2022-06-30 13:48:32,248161
5c6f2ab29d7a310001470418,ma_choice_v4_social_pilot2,5c6f2ab29d7a310001470418,1,0,-1,-1,"Number of other people present,Quality of socializing,Distance from home,Quality of music playing,Amount of food present,Duration,Amount of alcohol present","11 people,Bad,60 min away,Very Bad,A Lot,80 minutes,None","6 people,Good,20 min away,Very Good,None,60 minutes,A Lot",1,,8715,2022-06-30 13:48:42,248162
6023d6c2657c850454e5a276,ma_choice_v4_social_pilot2,6023d6c2657c850454e5a276,9,0,-1,-1,"Amount of alcohol present,Distance from home,Quality of music playing,Duration,Quality of socializing,Amount of food present,Number of other people present","A Lot,60 min away,Very Good,50 minutes,Very Good,None,8 people","A Little,50 min away,Bad,80 minutes,Bad,A Lot,3 people",0,,21708,2022-06-30 13:48:44,248163
5becfeed4f191100013b46db,ma_choice_v4_social_pilot2,5becfeed4f191100013b46db,0,1,-1,-1,"Amount of food present,Number of other people present,Duration,Amount of alcohol present,Quality of socializing,Distance from home,Quality of music playing","A Moderate Amount,8 people,30 minutes,None,Good,50 min away,Bad","None,10 people,60 minutes,A Moderate Amount,Very Bad,15 min away,Good",1,,8891,2022-06-30 13:48:48,248164
5c6f2ab29d7a310001470418,ma_choice_v4_social_pilot2,5c6f2ab29d7a310001470418,2,0,-1,-1,"Number of other people present,Quality of socializing,Distance from home,Quality of music playing,Amount of food present,Duration,Amount of alcohol present","9 people,Bad,55 min away,Very Bad,A Lot,50 minutes,None","3 people,Good,10 min away,Very Good,A Little,80 minutes,A Moderate Amount",1,,9207,2022-06-30 13:48:52,248165
5becfeed4f191100013b46db,ma_choice_v4_social_pilot2,5becfeed4f191100013b46db,1,1,-1,-1,"Amount of food present,Number of other people present,Duration,Amount of alcohol present,Quality of socializing,Distance from home,Quality of music playing","A Little,9 people,50 minutes,A Moderate Amount,Bad,10 min away,Moderate","A Lot,4 people,80 minutes,None,Very Good,50 min away,Very Good",0,,9026,2022-06-30 13:48:58,248166
6023d6c2657c850454e5a276,ma_choice_v4_social_pilot2,6023d6c2657c850454e5a276,10,0,-1,-1,"Amount of alcohol present,Distance from home,Quality of music playing,Duration,Quality of socializing,Amount of food present,Number of other people present","A Little,50 min away,Very Good,80 minutes,Very Bad,A Moderate Amount,7 people","A Lot,30 min away,Moderate,50 minutes,Moderate,None,9 people",0,,15442,2022-06-30 13:49:01,248167
5becfeed4f191100013b46db,ma_choice_v4_social_pilot2,5becfeed4f191100013b46db,2,1,-1,-1,"Amount of food present,Number of other people present,Duration,Amount of alcohol present,Quality of socializing,Distance from home,Quality of music playing","None,6 people,80 minutes,A Little,Good,55 min away,Very Bad","A Lot,3 people,50 minutes,A Lot,Very Bad,30 min away,Moderate",1,,6111,2022-06-30 13:49:05,248168
5c6f2ab29d7a310001470418,ma_choice_v4_social_pilot2,5c6f2ab29d7a310001470418,3,0,-1,-1,"Number of other people present,Quality of socializing,Distance from home,Quality of music playing,Amount of food present,Duration,Amount of alcohol present","10 people,Bad,40 min away,Good,A Little,40 minutes,None","7 people,Very Good,10 min away,Very Bad,A Lot,70 minutes,A Moderate Amount",1,,12366,2022-06-30 13:49:06,248169
62373694c3277138c1284e44,ma_choice_v4_social_pilot2,62373694c3277138c1284e44,0,1,-1,-1,"Duration,Amount of food present,Quality of socializing,Amount of alcohol present,Distance from home,Number of other people present,Quality of music playing","70 minutes,A Little,Very Good,A Little,60 min away,10 people,Very Bad","50 minutes,A Lot,Moderate,A Lot,45 min away,6 people,Good",1,,13611,2022-06-30 13:49:07,248170
6023d6c2657c850454e5a276,ma_choice_v4_social_pilot2,6023d6c2657c850454e5a276,11,0,-1,-1,"Amount of alcohol present,Distance from home,Quality of music playing,Duration,Quality of socializing,Amount of food present,Number of other people present","A Little,25 min away,Bad,50 minutes,Moderate,None,6 people","A Lot,45 min away,Very Good,70 minutes,Very Bad,A Lot,4 people",1,,6193,2022-06-30 13:49:08,248171
5becfeed4f191100013b46db,ma_choice_v4_social_pilot2,5becfeed4f191100013b46db,3,1,-1,-1,"Amount of food present,Number of other people present,Duration,Amount of alcohol present,Quality of socializing,Distance from home,Quality of music playing","A Lot,8 people,80 minutes,A Lot,Very Bad,55 min away,Very Good","A Little,3 people,40 minutes,A Little,Moderate,20 min away,Bad",1,,7409,2022-06-30 13:49:13,248172
5c6f2ab29d7a310001470418,ma_choice_v4_social_pilot2,5c6f2ab29d7a310001470418,4,0,-1,-1,"Number of other people present,Quality of socializing,Distance from home,Quality of music playing,Amount of food present,Duration,Amount of alcohol present","11 people,Very Bad,45 min away,Very Good,A Moderate Amount,60 minutes,None","8 people,Good,20 min away,Moderate,None,30 minutes,A Moderate Amount",1,,10279,2022-06-30 13:49:17,248173
62373694c3277138c1284e44,ma_choice_v4_social_pilot2,62373694c3277138c1284e44,1,1,-1,-1,"Duration,Amount of food present,Quality of socializing,Amount of alcohol present,Distance from home,Number of other people present,Quality of music playing","50 minutes,A Lot,Very Good,None,35 min away,7 people,Moderate","30 minutes,None,Moderate,A Moderate Amount,20 min away,11 people,Very Bad",0,,9000,2022-06-30 13:49:17,248174
6023d6c2657c850454e5a276,ma_choice_v4_social_pilot2,6023d6c2657c850454e5a276,12,0,-1,-1,"Amount of alcohol present,Distance from home,Quality of music playing,Duration,Quality of socializing,Amount of food present,Number of other people present","None,30 min away,Good,80 minutes,Very Bad,None,8 people","A Lot,20 min away,Very Bad,30 minutes,Moderate,A Moderate Amount,4 people",1,,11078,2022-06-30 13:49:20,248175
5becfeed4f191100013b46db,ma_choice_v4_social_pilot2,5becfeed4f191100013b46db,4,1,-1,-1,"Amount of food present,Number of other people present,Duration,Amount of alcohol present,Quality of socializing,Distance from home,Quality of music playing","A Little,4 people,60 minutes,A Little,Good,25 min away,Very Bad","A Lot,7 people,80 minutes,A Lot,Very Bad,35 min away,Very Good",1,,7056,2022-06-30 13:49:21,248176
5becfeed4f191100013b46db,ma_choice_v4_social_pilot2,5becfeed4f191100013b46db,5,1,-1,-1,"Amount of food present,Number of other people present,Duration,Amount of alcohol present,Quality of socializing,Distance from home,Quality of music playing","A Lot,8 people,90 minutes,A Lot,Very Bad,60 min away,Moderate","A Little,11 people,40 minutes,None,Moderate,10 min away,Very Bad",1,,3166,2022-06-30 13:49:26,248177
6023d6c2657c850454e5a276,ma_choice_v4_social_pilot2,6023d6c2657c850454e5a276,13,0,-1,-1,"Amount of alcohol present,Distance from home,Quality of music playing,Duration,Quality of socializing,Amount of food present,Number of other people present","A Little,55 min away,Very Good,40 minutes,Very Bad,A Little,8 people","A Lot,5 min away,Moderate,70 minutes,Very Good,A Lot,4 people",1,,6973,2022-06-30 13:49:28,248178
5c6f2ab29d7a310001470418,ma_choice_v4_social_pilot2,5c6f2ab29d7a310001470418,5,0,-1,-1,"Number of other people present,Quality of socializing,Distance from home,Quality of music playing,Amount of food present,Duration,Amount of alcohol present","8 people,Good,5 min away,Moderate,A Little,50 minutes,A Lot","6 people,Bad,55 min away,Very Good,A Lot,80 minutes,A Little",1,,11614,2022-06-30 13:49:29,248179
5becfeed4f191100013b46db,ma_choice_v4_social_pilot2,5becfeed4f191100013b46db,6,1,-1,-1,"Amount of food present,Number of other people present,Duration,Amount of alcohol present,Quality of socializing,Distance from home,Quality of music playing","A Moderate Amount,8 people,80 minutes,A Lot,Very Bad,20 min away,Very Good","None,11 people,60 minutes,None,Moderate,50 min away,Bad",0,,8013,2022-06-30 13:49:35,248180
5becfeed4f191100013b46db,ma_choice_v4_social_pilot2,5becfeed4f191100013b46db,7,1,-1,-1,"Amount of food present,Number of other people present,Duration,Amount of alcohol present,Quality of socializing,Distance from home,Quality of music playing","None,9 people,60 minutes,None,Bad,25 min away,Very Bad","A Moderate Amount,7 people,40 minutes,A Moderate Amount,Good,5 min away,Good",1,,5214,2022-06-30 13:49:41,248181
5becfeed4f191100013b46db,ma_choice_v4_social_pilot2,5becfeed4f191100013b46db,8,1,-1,-1,"Amount of food present,Number of other people present,Duration,Amount of alcohol present,Quality of socializing,Distance from home,Quality of music playing","A Moderate Amount,7 people,50 minutes,A Lot,Moderate,5 min away,Bad","None,9 people,70 minutes,None,Very Good,50 min away,Very Good",0,,2939,2022-06-30 13:49:45,248182
6023d6c2657c850454e5a276,ma_choice_v4_social_pilot2,6023d6c2657c850454e5a276,14,0,-1,-1,"Amount of alcohol present,Distance from home,Quality of music playing,Duration,Quality of socializing,Amount of food present,Number of other people present","A Lot,55 min away,Good,70 minutes,Very Good,A Lot,8 people","None,35 min away,Bad,50 minutes,Moderate,A Little,5 people",0,,15788,2022-06-30 13:49:45,248183
5c6f2ab29d7a310001470418,ma_choice_v4_social_pilot2,5c6f2ab29d7a310001470418,6,0,-1,-1,"Number of other people present,Quality of socializing,Distance from home,Quality of music playing,Amount of food present,Duration,Amount of alcohol present","8 people,Bad,55 min away,Very Bad,A Little,90 minutes,A Lot","11 people,Very Good,35 min away,Moderate,A Lot,30 minutes,A Little",1,,17000,2022-06-30 13:49:48,248184
5becfeed4f191100013b46db,ma_choice_v4_social_pilot2,5becfeed4f191100013b46db,9,1,-1,-1,"Amount of food present,Number of other people present,Duration,Amount of alcohol present,Quality of socializing,Distance from home,Quality of music playing","None,7 people,40 minutes,A Little,Very Good,10 min away,Good","A Moderate Amount,11 people,90 minutes,A Lot,Moderate,55 min away,Very Bad",0,,3619,2022-06-30 13:49:49,248185
62373694c3277138c1284e44,ma_choice_v4_social_pilot2,62373694c3277138c1284e44,2,1,-1,-1,"Duration,Amount of food present,Quality of socializing,Amount of alcohol present,Distance from home,Number of other people present,Quality of music playing","60 minutes,A Little,Moderate,None,35 min away,6 people,Good","30 minutes,A Lot,Very Good,A Lot,50 min away,8 people,Very Bad",0,,35725,2022-06-30 13:49:54,248186
6023d6c2657c850454e5a276,ma_choice_v4_social_pilot2,6023d6c2657c850454e5a276,15,0,-1,-1,"Amount of alcohol present,Distance from home,Quality of music playing,Duration,Quality of socializing,Amount of food present,Number of other people present","A Lot,45 min away,Moderate,60 minutes,Moderate,A Lot,10 people","None,5 min away,Very Good,40 minutes,Very Bad,None,5 people",0,,12477,2022-06-30 13:49:58,248187
5c6f2ab29d7a310001470418,ma_choice_v4_social_pilot2,5c6f2ab29d7a310001470418,7,0,-1,-1,"Number of other people present,Quality of socializing,Distance from home,Quality of music playing,Amount of food present,Duration,Amount of alcohol present","7 people,Very Good,10 min away,Very Bad,A Moderate Amount,50 minutes,A Little","10 people,Very Bad,50 min away,Very Good,None,90 minutes,A Lot",1,,10885,2022-06-30 13:49:59,248188
62373694c3277138c1284e44,ma_choice_v4_social_pilot2,62373694c3277138c1284e44,3,1,-1,-1,"Duration,Amount of food present,Quality of socializing,Amount of alcohol present,Distance from home,Number of other people present,Quality of music playing","30 minutes,A Lot,Bad,None,45 min away,5 people,Good","80 minutes,A Little,Very Good,A Lot,15 min away,11 people,Very Bad",1,,4994,2022-06-30 13:50:00,248189
5c6f2ab29d7a310001470418,ma_choice_v4_social_pilot2,5c6f2ab29d7a310001470418,8,0,-1,-1,"Number of other people present,Quality of socializing,Distance from home,Quality of music playing,Amount of food present,Duration,Amount of alcohol present","8 people,Very Good,15 min away,Moderate,A Lot,50 minutes,None","4 people,Very Bad,45 min away,Very Good,None,80 minutes,A Lot",0,,7150,2022-06-30 13:50:07,248190
62373694c3277138c1284e44,ma_choice_v4_social_pilot2,62373694c3277138c1284e44,4,1,-1,-1,"Duration,Amount of food present,Quality of socializing,Amount of alcohol present,Distance from home,Number of other people present,Quality of music playing","80 minutes,A Moderate Amount,Bad,None,60 min away,4 people,Good","50 minutes,None,Good,A Lot,15 min away,7 people,Very Bad",1,,10903,2022-06-30 13:50:11,248191
6023d6c2657c850454e5a276,ma_choice_v4_social_pilot2,6023d6c2657c850454e5a276,16,0,-1,-1,"Amount of alcohol present,Distance from home,Quality of music playing,Duration,Quality of socializing,Amount of food present,Number of other people present","A Moderate Amount,50 min away,Very Good,50 minutes,Very Good,A Lot,3 people","None,15 min away,Bad,80 minutes,Bad,A Little,8 people",0,,15537,2022-06-30 13:50:15,248192
5becfeed4f191100013b46db,ma_choice_v4_social_pilot2,5becfeed4f191100013b46db,0,0,-1,-1,"Amount of food present,Number of other people present,Duration,Amount of alcohol present,Quality of socializing,Distance from home,Quality of music playing","A Little,11 people,40 minutes,None,Moderate,55 min away,Good","A Lot,9 people,80 minutes,A Moderate Amount,Very Good,35 min away,Bad",1,,9189,2022-06-30 13:50:15,248193
62373694c3277138c1284e44,ma_choice_v4_social_pilot2,62373694c3277138c1284e44,5,1,-1,-1,"Duration,Amount of food present,Quality of socializing,Amount of alcohol present,Distance from home,Number of other people present,Quality of music playing","50 minutes,None,Very Bad,None,40 min away,4 people,Good","80 minutes,A Lot,Moderate,A Moderate Amount,55 min away,9 people,Bad",0,,3874,2022-06-30 13:50:16,248194
5becfeed4f191100013b46db,ma_choice_v4_social_pilot2,5becfeed4f191100013b46db,1,0,-1,-1,"Amount of food present,Number of other people present,Duration,Amount of alcohol present,Quality of socializing,Distance from home,Quality of music playing","A Lot,7 people,80 minutes,A Little,Very Good,30 min away,Good","None,10 people,60 minutes,A Lot,Very Bad,5 min away,Bad",1,,3817,2022-06-30 13:50:20,248195
62373694c3277138c1284e44,ma_choice_v4_social_pilot2,62373694c3277138c1284e44,6,1,-1,-1,"Duration,Amount of food present,Quality of socializing,Amount of alcohol present,Distance from home,Number of other people present,Quality of music playing","90 minutes,A Little,Good,A Moderate Amount,35 min away,4 people,Very Bad","60 minutes,A Lot,Very Bad,None,55 min away,11 people,Very Good",1,,4289,2022-06-30 13:50:22,248196
62373694c3277138c1284e44,ma_choice_v4_social_pilot2,62373694c3277138c1284e44,7,1,-1,-1,"Duration,Amount of food present,Quality of socializing,Amount of alcohol present,Distance from home,Number of other people present,Quality of music playing","60 minutes,A Little,Very Bad,A Lot,5 min away,11 people,Very Good","30 minutes,A Lot,Moderate,A Little,55 min away,5 people,Bad",0,,4798,2022-06-30 13:50:27,248197
5becfeed4f191100013b46db,ma_choice_v4_social_pilot2,5becfeed4f191100013b46db,2,0,-1,-1,"Amount of food present,Number of other people present,Duration,Amount of alcohol present,Quality of socializing,Distance from home,Quality of music playing","None,6 people,50 minutes,A Lot,Bad,40 min away,Very Bad","A Lot,4 people,70 minutes,A Little,Very Good,30 min away,Good",1,,9606,2022-06-30 13:50:30,248198
62373694c3277138c1284e44,ma_choice_v4_social_pilot2,62373694c3277138c1284e44,8,1,-1,-1,"Duration,Amount of food present,Quality of socializing,Amount of alcohol present,Distance from home,Number of other people present,Quality of music playing","50 minutes,A Little,Very Good,None,20 min away,4 people,Bad","30 minutes,A Lot,Very Bad,A Lot,45 min away,8 people,Good",1,,4169,2022-06-30 13:50:33,248199
5becfeed4f191100013b46db,ma_choice_v4_social_pilot2,5becfeed4f191100013b46db,3,0,-1,-1,"Amount of food present,Number of other people present,Duration,Amount of alcohol present,Quality of socializing,Distance from home,Quality of music playing","A Moderate Amount,7 people,60 minutes,A Little,Good,25 min away,Moderate","None,4 people,90 minutes,A Lot,Bad,45 min away,Very Bad",0,,4793,2022-06-30 13:50:36,248200
6023d6c2657c850454e5a276,ma_choice_v4_social_pilot2,6023d6c2657c850454e5a276,17,0,-1,-1,"Amount of alcohol present,Distance from home,Quality of music playing,Duration,Quality of socializing,Amount of food present,Number of other people present","None,50 min away,Good,80 minutes,Very Good,A Little,8 people","A Lot,40 min away,Very Bad,40 minutes,Bad,A Lot,4 people",1,,20964,2022-06-30 13:50:37,248201
5c6f2ab29d7a310001470418,ma_choice_v4_social_pilot2,5c6f2ab29d7a310001470418,9,0,-1,-1,"Number of other people present,Quality of socializing,Distance from home,Quality of music playing,Amount of food present,Duration,Amount of alcohol present","11 people,Good,35 min away,Bad,None,60 minutes,A Moderate Amount","9 people,Very Bad,15 min away,Very Good,A Moderate Amount,80 minutes,None",1,,30074,2022-06-30 13:50:39,248202
62373694c3277138c1284e44,ma_choice_v4_social_pilot2,62373694c3277138c1284e44,9,1,-1,-1,"Duration,Amount of food present,Quality of socializing,Amount of alcohol present,Distance from home,Number of other people present,Quality of music playing","60 minutes,A Little,Good,A Little,40 min away,11 people,Very Bad","90 minutes,A Lot,Very Bad,A Lot,10 min away,5 people,Very Good",1,,6791,2022-06-30 13:50:40,248203
5becfeed4f191100013b46db,ma_choice_v4_social_pilot2,5becfeed4f191100013b46db,4,0,-1,-1,"Amount of food present,Number of other people present,Duration,Amount of alcohol present,Quality of socializing,Distance from home,Quality of music playing","A Lot,8 people,70 minutes,None,Very Bad,5 min away,Very Good","A Little,4 people,90 minutes,A Lot,Moderate,15 min away,Moderate",0,,3529,2022-06-30 13:50:41,248204
5becfeed4f191100013b46db,ma_choice_v4_social_pilot2,5becfeed4f191100013b46db,5,0,-1,-1,"Amount of food present,Number of other people present,Duration,Amount of alcohol present,Quality of socializing,Distance from home,Quality of music playing","A Lot,9 people,60 minutes,A Moderate Amount,Moderate,35 min away,Very Bad","None,5 people,40 minutes,None,Very Bad,25 min away,Very Good",0,,6571,2022-06-30 13:50:48,248205
5c6f2ab29d7a310001470418,ma_choice_v4_social_pilot2,5c6f2ab29d7a310001470418,10,0,-1,-1,"Number of other people present,Quality of socializing,Distance from home,Quality of music playing,Amount of food present,Duration,Amount of alcohol present","10 people,Bad,40 min away,Very Good,A Little,40 minutes,A Little","5 people,Very Good,25 min away,Moderate,A Lot,70 minutes,A Lot",1,,11428,2022-06-30 13:50:51,248206
5becfeed4f191100013b46db,ma_choice_v4_social_pilot2,5becfeed4f191100013b46db,6,0,-1,-1,"Amount of food present,Number of other people present,Duration,Amount of alcohol present,Quality of socializing,Distance from home,Quality of music playing","A Lot,9 people,70 minutes,A Lot,Moderate,20 min away,Very Bad","A Little,7 people,30 minutes,None,Very Bad,45 min away,Very Good",0,,2949,2022-06-30 13:50:52,248207
6023d6c2657c850454e5a276,ma_choice_v4_social_pilot2,6023d6c2657c850454e5a276,18,0,-1,-1,"Amount of alcohol present,Distance from home,Quality of music playing,Duration,Quality of socializing,Amount of food present,Number of other people present","A Lot,30 min away,Very Good,80 minutes,Bad,None,4 people","None,45 min away,Moderate,50 minutes,Very Good,A Moderate Amount,8 people",1,,16691,2022-06-30 13:50:54,248208
5becfeed4f191100013b46db,ma_choice_v4_social_pilot2,5becfeed4f191100013b46db,7,0,-1,-1,"Amount of food present,Number of other people present,Duration,Amount of alcohol present,Quality of socializing,Distance from home,Quality of music playing","A Little,8 people,80 minutes,A Little,Very Bad,40 min away,Very Good","A Lot,4 people,50 minutes,A Lot,Very Good,55 min away,Moderate",0,,9607,2022-06-30 13:51:03,248209
5c6f2ab29d7a310001470418,ma_choice_v4_social_pilot2,5c6f2ab29d7a310001470418,11,0,-1,-1,"Number of other people present,Quality of socializing,Distance from home,Quality of music playing,Amount of food present,Duration,Amount of alcohol present","7 people,Bad,35 min away,Good,A Lot,80 minutes,A Little","5 people,Very Good,25 min away,Very Bad,A Little,50 minutes,A Lot",0,,13594,2022-06-30 13:51:06,248210
5becfeed4f191100013b46db,ma_choice_v4_social_pilot2,5becfeed4f191100013b46db,8,0,-1,-1,"Amount of food present,Number of other people present,Duration,Amount of alcohol present,Quality of socializing,Distance from home,Quality of music playing","A Moderate Amount,7 people,70 minutes,A Lot,Moderate,15 min away,Good","None,4 people,50 minutes,None,Very Good,40 min away,Bad",0,,5434,2022-06-30 13:51:09,248211
6023d6c2657c850454e5a276,ma_choice_v4_social_pilot2,6023d6c2657c850454e5a276,19,0,-1,-1,"Amount of alcohol present,Distance from home,Quality of music playing,Duration,Quality of socializing,Amount of food present,Number of other people present","None,15 min away,Good,50 minutes,Very Bad,A Moderate Amount,3 people","A Lot,40 min away,Bad,80 minutes,Moderate,None,5 people",0,,13829,2022-06-30 13:51:09,248212
62373694c3277138c1284e44,ma_choice_v4_social_pilot2,62373694c3277138c1284e44,0,0,-1,-1,"Duration,Amount of food present,Quality of socializing,Amount of alcohol present,Distance from home,Number of other people present,Quality of music playing","70 minutes,A Little,Very Good,A Moderate Amount,50 min away,8 people,Moderate","50 minutes,A Lot,Very Bad,None,30 min away,11 people,Very Good",1,,5393,2022-06-30 13:51:12,248213
5becfeed4f191100013b46db,ma_choice_v4_social_pilot2,5becfeed4f191100013b46db,9,0,-1,-1,"Amount of food present,Number of other people present,Duration,Amount of alcohol present,Quality of socializing,Distance from home,Quality of music playing","None,11 people,30 minutes,A Moderate Amount,Very Bad,40 min away,Very Bad","A Moderate Amount,7 people,70 minutes,None,Good,60 min away,Very Good",0,,3332,2022-06-30 13:51:14,248214
5c6f2ab29d7a310001470418,ma_choice_v4_social_pilot2,5c6f2ab29d7a310001470418,12,0,-1,-1,"Number of other people present,Quality of socializing,Distance from home,Quality of music playing,Amount of food present,Duration,Amount of alcohol present","3 people,Good,25 min away,Moderate,A Lot,40 minutes,A Moderate Amount","8 people,Bad,15 min away,Very Bad,A Little,90 minutes,None",0,,7038,2022-06-30 13:51:14,248215
6023d6c2657c850454e5a276,ma_choice_v4_social_pilot2,6023d6c2657c850454e5a276,20,0,-1,-1,"Amount of alcohol present,Distance from home,Quality of music playing,Duration,Quality of socializing,Amount of food present,Number of other people present","A Moderate Amount,20 min away,Very Good,80 minutes,Good,None,7 people","None,45 min away,Very Bad,60 minutes,Very Bad,A Lot,5 people",0,,4050,2022-06-30 13:51:14,248216
5becfeed4f191100013b46db,ma_choice_v4_social_pilot2,5becfeed4f191100013b46db,10,0,-1,-1,"Amount of food present,Number of other people present,Duration,Amount of alcohol present,Quality of socializing,Distance from home,Quality of music playing","A Lot,3 people,70 minutes,A Moderate Amount,Moderate,10 min away,Good","None,10 people,40 minutes,None,Very Bad,35 min away,Bad",0,,2201,2022-06-30 13:51:17,248217
62373694c3277138c1284e44,ma_choice_v4_social_pilot2,62373694c3277138c1284e44,1,0,-1,-1,"Duration,Amount of food present,Quality of socializing,Amount of alcohol present,Distance from home,Number of other people present,Quality of music playing","60 minutes,A Moderate Amount,Bad,A Moderate Amount,30 min away,3 people,Very Good","80 minutes,None,Good,None,15 min away,9 people,Moderate",0,,5136,2022-06-30 13:51:18,248218
5c6f2ab29d7a310001470418,ma_choice_v4_social_pilot2,5c6f2ab29d7a310001470418,13,0,-1,-1,"Number of other people present,Quality of socializing,Distance from home,Quality of music playing,Amount of food present,Duration,Amount of alcohol present","9 people,Very Bad,45 min away,Very Good,A Moderate Amount,80 minutes,A Moderate Amount","4 people,Good,35 min away,Very Bad,None,40 minutes,None",0,,3820,2022-06-30 13:51:18,248219
62373694c3277138c1284e44,ma_choice_v4_social_pilot2,62373694c3277138c1284e44,2,0,-1,-1,"Duration,Amount of food present,Quality of socializing,Amount of alcohol present,Distance from home,Number of other people present,Quality of music playing","30 minutes,A Moderate Amount,Bad,A Little,30 min away,11 people,Very Good","60 minutes,None,Very Good,A Lot,50 min away,7 people,Moderate",0,,3321,2022-06-30 13:51:23,248220
5becfeed4f191100013b46db,ma_choice_v4_social_pilot2,5becfeed4f191100013b46db,11,0,-1,-1,"Amount of food present,Number of other people present,Duration,Amount of alcohol present,Quality of socializing,Distance from home,Quality of music playing","A Lot,8 people,30 minutes,None,Moderate,40 min away,Moderate","None,6 people,60 minutes,A Lot,Very Bad,20 min away,Very Good",1,,6757,2022-06-30 13:51:25,248221
5becfeed4f191100013b46db,ma_choice_v4_social_pilot2,5becfeed4f191100013b46db,12,0,-1,-1,"Amount of food present,Number of other people present,Duration,Amount of alcohol present,Quality of socializing,Distance from home,Quality of music playing","A Moderate Amount,6 people,50 minutes,A Moderate Amount,Very Good,20 min away,Good","None,8 people,80 minutes,None,Bad,30 min away,Very Bad",0,,4229,2022-06-30 13:51:30,248222
62373694c3277138c1284e44,ma_choice_v4_social_pilot2,62373694c3277138c1284e44,3,0,-1,-1,"Duration,Amount of food present,Quality of socializing,Amount of alcohol present,Distance from home,Number of other people present,Quality of music playing","40 minutes,A Moderate Amount,Good,A Lot,45 min away,9 people,Bad","70 minutes,None,Very Bad,None,25 min away,5 people,Good",1,,8329,2022-06-30 13:51:32,248223
6023d6c2657c850454e5a276,ma_choice_v4_social_pilot2,6023d6c2657c850454e5a276,21,0,-1,-1,"Amount of alcohol present,Distance from home,Quality of music playing,Duration,Quality of socializing,Amount of food present,Number of other people present","None,35 min away,Very Bad,40 minutes,Very Bad,A Moderate Amount,8 people","A Moderate Amount,55 min away,Very Good,70 minutes,Moderate,None,3 people",1,,17554,2022-06-30 13:51:33,248224
5c6f2ab29d7a310001470418,ma_choice_v4_social_pilot2,5c6f2ab29d7a310001470418,14,0,-1,-1,"Number of other people present,Quality of socializing,Distance from home,Quality of music playing,Amount of food present,Duration,Amount of alcohol present","3 people,Very Good,45 min away,Good,A Little,30 minutes,None","10 people,Very Bad,5 min away,Very Bad,A Lot,60 minutes,A Lot",0,,16497,2022-06-30 13:51:36,248225
5becfeed4f191100013b46db,ma_choice_v4_social_pilot2,5becfeed4f191100013b46db,13,0,-1,-1,"Amount of food present,Number of other people present,Duration,Amount of alcohol present,Quality of socializing,Distance from home,Quality of music playing","None,10 people,70 minutes,None,Very Good,45 min away,Good","A Moderate Amount,5 people,30 minutes,A Moderate Amount,Very Bad,20 min away,Very Bad",0,,6532,2022-06-30 13:51:37,248226
5becfeed4f191100013b46db,ma_choice_v4_social_pilot2,5becfeed4f191100013b46db,14,0,-1,-1,"Amount of food present,Number of other people present,Duration,Amount of alcohol present,Quality of socializing,Distance from home,Quality of music playing","A Little,9 people,90 minutes,A Lot,Bad,55 min away,Good","A Lot,11 people,50 minutes,A Little,Good,35 min away,Bad",1,,3742,2022-06-30 13:51:42,248227
6023d6c2657c850454e5a276,ma_choice_v4_social_pilot2,6023d6c2657c850454e5a276,22,0,-1,-1,"Amount of alcohol present,Distance from home,Quality of music playing,Duration,Quality of socializing,Amount of food present,Number of other people present","A Lot,55 min away,Bad,80 minutes,Good,A Moderate Amount,5 people","A Little,40 min away,Very Good,40 minutes,Very Bad,None,7 people",0,,12148,2022-06-30 13:51:46,248228
5becfeed4f191100013b46db,ma_choice_v4_social_pilot2,5becfeed4f191100013b46db,15,0,-1,-1,"Amount of food present,Number of other people present,Duration,Amount of alcohol present,Quality of socializing,Distance from home,Quality of music playing","A Little,9 people,80 minutes,None,Moderate,40 min away,Bad","A Lot,3 people,50 minutes,A Lot,Very Bad,50 min away,Very Good",1,,6630,2022-06-30 13:51:50,248229
5c6f2ab29d7a310001470418,ma_choice_v4_social_pilot2,5c6f2ab29d7a310001470418,15,0,-1,-1,"Number of other people present,Quality of socializing,Distance from home,Quality of music playing,Amount of food present,Duration,Amount of alcohol present","8 people,Bad,35 min away,Good,None,60 minutes,None","4 people,Very Good,20 min away,Very Bad,A Lot,80 minutes,A Lot",1,,14141,2022-06-30 13:51:51,248230
5becfeed4f191100013b46db,ma_choice_v4_social_pilot2,5becfeed4f191100013b46db,16,0,-1,-1,"Amount of food present,Number of other people present,Duration,Amount of alcohol present,Quality of socializing,Distance from home,Quality of music playing","None,5 people,30 minutes,A Moderate Amount,Good,25 min away,Moderate","A Lot,10 people,70 minutes,None,Very Bad,60 min away,Very Bad",0,,3110,2022-06-30 13:51:54,248231
5c6f2ab29d7a310001470418,ma_choice_v4_social_pilot2,5c6f2ab29d7a310001470418,16,0,-1,-1,"Number of other people present,Quality of socializing,Distance from home,Quality of music playing,Amount of food present,Duration,Amount of alcohol present","3 people,Very Bad,50 min away,Moderate,None,80 minutes,A Little","7 people,Good,30 min away,Very Bad,A Lot,60 minutes,A Lot",1,,2078,2022-06-30 13:51:54,248232
6023d6c2657c850454e5a276,ma_choice_v4_social_pilot2,6023d6c2657c850454e5a276,23,0,-1,-1,"Amount of alcohol present,Distance from home,Quality of music playing,Duration,Quality of socializing,Amount of food present,Number of other people present","A Lot,25 min away,Good,50 minutes,Good,None,11 people","A Little,45 min away,Very Bad,80 minutes,Bad,A Moderate Amount,9 people",0,,9147,2022-06-30 13:51:56,248233
5c6f2ab29d7a310001470418,ma_choice_v4_social_pilot2,5c6f2ab29d7a310001470418,17,0,-1,-1,"Number of other people present,Quality of socializing,Distance from home,Quality of music playing,Amount of food present,Duration,Amount of alcohol present","9 people,Good,15 min away,Moderate,A Moderate Amount,60 minutes,A Little","5 people,Very Bad,45 min away,Very Good,None,80 minutes,A Lot",0,,5131,2022-06-30 13:52:00,248234
5becfeed4f191100013b46db,ma_choice_v4_social_pilot2,5becfeed4f191100013b46db,17,0,-1,-1,"Amount of food present,Number of other people present,Duration,Amount of alcohol present,Quality of socializing,Distance from home,Quality of music playing","A Little,7 people,50 minutes,A Little,Moderate,50 min away,Moderate","A Lot,4 people,70 minutes,A Lot,Very Bad,30 min away,Very Bad",0,,11406,2022-06-30 13:52:06,248235
6023d6c2657c850454e5a276,ma_choice_v4_social_pilot2,6023d6c2657c850454e5a276,24,0,-1,-1,"Amount of alcohol present,Distance from home,Quality of music playing,Duration,Quality of socializing,Amount of food present,Number of other people present","A Moderate Amount,40 min away,Bad,50 minutes,Moderate,A Lot,3 people","None,25 min away,Very Good,70 minutes,Very Good,A Little,7 people",1,,11324,2022-06-30 13:52:09,248236
5becfeed4f191100013b46db,ma_choice_v4_social_pilot2,5becfeed4f191100013b46db,18,0,-1,-1,"Amount of food present,Number of other people present,Duration,Amount of alcohol present,Quality of socializing,Distance from home,Quality of music playing","None,6 people,70 minutes,None,Moderate,5 min away,Good","A Lot,4 people,40 minutes,A Moderate Amount,Very Bad,55 min away,Bad",0,,1813,2022-06-30 13:52:09,248237
5c6f2ab29d7a310001470418,ma_choice_v4_social_pilot2,5c6f2ab29d7a310001470418,18,0,-1,-1,"Number of other people present,Quality of socializing,Distance from home,Quality of music playing,Amount of food present,Duration,Amount of alcohol present","10 people,Very Good,45 min away,Very Good,A Little,70 minutes,A Moderate Amount","5 people,Bad,35 min away,Very Bad,A Lot,50 minutes,None",0,,10618,2022-06-30 13:52:12,248238
5becfeed4f191100013b46db,ma_choice_v4_social_pilot2,5becfeed4f191100013b46db,19,0,-1,-1,"Amount of food present,Number of other people present,Duration,Amount of alcohol present,Quality of socializing,Distance from home,Quality of music playing","A Moderate Amount,8 people,50 minutes,A Moderate Amount,Bad,55 min away,Very Bad","None,6 people,70 minutes,None,Very Good,5 min away,Moderate",1,,2422,2022-06-30 13:52:13,248239
5becfeed4f191100013b46db,ma_choice_v4_social_pilot2,5becfeed4f191100013b46db,20,0,-1,-1,"Amount of food present,Number of other people present,Duration,Amount of alcohol present,Quality of socializing,Distance from home,Quality of music playing","A Little,9 people,50 minutes,A Moderate Amount,Bad,10 min away,Moderate","A Lot,4 people,70 minutes,None,Very Good,55 min away,Very Good",0,,2541,2022-06-30 13:52:16,248240
5c6f2ab29d7a310001470418,ma_choice_v4_social_pilot2,5c6f2ab29d7a310001470418,19,0,-1,-1,"Number of other people present,Quality of socializing,Distance from home,Quality of music playing,Amount of food present,Duration,Amount of alcohol present","4 people,Very Good,20 min away,Very Good,A Little,60 minutes,None","9 people,Moderate,35 min away,Very Bad,A Lot,80 minutes,A Lot",1,,5912,2022-06-30 13:52:19,248241
6023d6c2657c850454e5a276,ma_choice_v4_social_pilot2,6023d6c2657c850454e5a276,25,0,-1,-1,"Amount of alcohol present,Distance from home,Quality of music playing,Duration,Quality of socializing,Amount of food present,Number of other people present","A Moderate Amount,10 min away,Bad,60 minutes,Very Bad,A Little,6 people","None,60 min away,Very Good,90 minutes,Very Good,A Lot,3 people",0,,12451,2022-06-30 13:52:22,248242
5c6f2ab29d7a310001470418,ma_choice_v4_social_pilot2,5c6f2ab29d7a310001470418,20,0,-1,-1,"Number of other people present,Quality of socializing,Distance from home,Quality of music playing,Amount of food present,Duration,Amount of alcohol present","8 people,Very Bad,20 min away,Bad,None,40 minutes,A Little","5 people,Moderate,5 min away,Very Good,A Moderate Amount,60 minutes,A Lot",1,,2965,2022-06-30 13:52:23,248243
5becfeed4f191100013b46db,ma_choice_v4_social_pilot2,5becfeed4f191100013b46db,21,0,-1,-1,"Amount of food present,Number of other people present,Duration,Amount of alcohol present,Quality of socializing,Distance from home,Quality of music playing","A Little,4 people,90 minutes,A Little,Moderate,20 min away,Bad","A Lot,8 people,40 minutes,A Lot,Very Good,60 min away,Very Good",0,,6533,2022-06-30 13:52:24,248244
5becfeed4f191100013b46db,ma_choice_v4_social_pilot2,5becfeed4f191100013b46db,22,0,-1,-1,"Amount of food present,Number of other people present,Duration,Amount of alcohol present,Quality of socializing,Distance from home,Quality of music playing","A Moderate Amount,7 people,60 minutes,A Moderate Amount,Very Good,5 min away,Good","None,10 people,80 minutes,None,Bad,45 min away,Very Bad",0,,3390,2022-06-30 13:52:28,248245
5becfeed4f191100013b46db,ma_choice_v4_social_pilot2,5becfeed4f191100013b46db,23,0,-1,-1,"Amount of food present,Number of other people present,Duration,Amount of alcohol present,Quality of socializing,Distance from home,Quality of music playing","A Lot,6 people,80 minutes,A Moderate Amount,Very Bad,35 min away,Good","None,9 people,50 minutes,None,Very Good,60 min away,Bad",0,,2180,2022-06-30 13:52:31,248246
5becfeed4f191100013b46db,ma_choice_v4_social_pilot2,5becfeed4f191100013b46db,24,0,-1,-1,"Amount of food present,Number of other people present,Duration,Amount of alcohol present,Quality of socializing,Distance from home,Quality of music playing","A Lot,11 people,40 minutes,A Moderate Amount,Bad,45 min away,Very Bad","None,4 people,70 minutes,None,Very Good,20 min away,Very Good",1,,2009,2022-06-30 13:52:34,248247
6023d6c2657c850454e5a276,ma_choice_v4_social_pilot2,6023d6c2657c850454e5a276,26,0,-1,-1,"Amount of alcohol present,Distance from home,Quality of music playing,Duration,Quality of socializing,Amount of food present,Number of other people present","A Moderate Amount,25 min away,Very Bad,70 minutes,Very Good,A Moderate Amount,4 people","None,40 min away,Very Good,50 minutes,Very Bad,None,9 people",0,,14681,2022-06-30 13:52:38,248248
62373694c3277138c1284e44,ma_choice_v4_social_pilot2,62373694c3277138c1284e44,4,0,-1,-1,"Duration,Amount of food present,Quality of socializing,Amount of alcohol present,Distance from home,Number of other people present,Quality of music playing","60 minutes,None,Very Good,A Little,40 min away,6 people,Moderate","80 minutes,A Moderate Amount,Moderate,A Lot,15 min away,3 people,Very Bad",1,,65648,2022-06-30 13:52:39,248249
5c6f2ab29d7a310001470418,ma_choice_v4_social_pilot2,5c6f2ab29d7a310001470418,21,0,-1,-1,"Number of other people present,Quality of socializing,Distance from home,Quality of music playing,Amount of food present,Duration,Amount of alcohol present","3 people,Good,55 min away,Very Bad,A Moderate Amount,40 minutes,A Lot","10 people,Very Bad,45 min away,Moderate,None,70 minutes,A Little",1,,15032,2022-06-30 13:52:39,248250
5becfeed4f191100013b46db,ma_choice_v4_social_pilot2,5becfeed4f191100013b46db,25,0,-1,-1,"Amount of food present,Number of other people present,Duration,Amount of alcohol present,Quality of socializing,Distance from home,Quality of music playing","A Little,5 people,60 minutes,A Little,Moderate,10 min away,Very Bad","A Lot,10 people,40 minutes,A Lot,Very Good,50 min away,Good",0,,4226,2022-06-30 13:52:39,248251
5becfeed4f191100013b46db,ma_choice_v4_social_pilot2,5becfeed4f191100013b46db,26,0,-1,-1,"Amount of food present,Number of other people present,Duration,Amount of alcohol present,Quality of socializing,Distance from home,Quality of music playing","A Moderate Amount,3 people,90 minutes,None,Moderate,45 min away,Good","None,6 people,70 minutes,A Lot,Very Bad,15 min away,Bad",1,,1676,2022-06-30 13:52:42,248252
