subject,version,assignmentId,trial,attribute,rating,least_preferred,most_preferred,type,rt,rt2,full_or_lex,signed_weights,original_or_followup,stamp,id
5ea3aa462d77061c2a8fc5d6,ma_choice_v4_social_pilot2,5ea3aa462d77061c2a8fc5d6,0,Quality of music playing,1,,,lex_att_rating,7135,,,,,2022-06-30 13:43:54,85285
5ea3aa462d77061c2a8fc5d6,ma_choice_v4_social_pilot2,5ea3aa462d77061c2a8fc5d6,6,Quality of socializing,28,,,wad_att_rating,4487,,,,,2022-06-30 13:44:02,85286
5ea3aa462d77061c2a8fc5d6,ma_choice_v4_social_pilot2,5ea3aa462d77061c2a8fc5d6,3,Number of other people present,63,,,wad_att_rating,5198,,,,,2022-06-30 13:44:07,85287
5ea3aa462d77061c2a8fc5d6,ma_choice_v4_social_pilot2,5ea3aa462d77061c2a8fc5d6,4,Duration,0,,,wad_att_rating,2255,,,,,2022-06-30 13:44:09,85288
5ea3aa462d77061c2a8fc5d6,ma_choice_v4_social_pilot2,5ea3aa462d77061c2a8fc5d6,2,Amount of food present,17,,,wad_att_rating,2815,,,,,2022-06-30 13:44:12,85289
5ea3aa462d77061c2a8fc5d6,ma_choice_v4_social_pilot2,5ea3aa462d77061c2a8fc5d6,5,Quality of music playing,100,,,wad_att_rating,2871,,,,,2022-06-30 13:44:15,85290
5ea3aa462d77061c2a8fc5d6,ma_choice_v4_social_pilot2,5ea3aa462d77061c2a8fc5d6,0,Distance from home,50,,,wad_att_rating,2615,,,,,2022-06-30 13:44:17,85291
5ea3aa462d77061c2a8fc5d6,ma_choice_v4_social_pilot2,5ea3aa462d77061c2a8fc5d6,1,Amount of alcohol present,29,,,wad_att_rating,1894,,,,,2022-06-30 13:44:19,85292
5ea3aa462d77061c2a8fc5d6,ma_choice_v4_social_pilot2,5ea3aa462d77061c2a8fc5d6,0,Distance from home,1,,,ew_att_rating,8292,,,,,2022-06-30 13:44:31,85293
5ea3aa462d77061c2a8fc5d6,ma_choice_v4_social_pilot2,5ea3aa462d77061c2a8fc5d6,0,Quality of music playing,1,,,ew_att_rating,8292,,,,,2022-06-30 13:44:31,85294
5ea3aa462d77061c2a8fc5d6,ma_choice_v4_social_pilot2,5ea3aa462d77061c2a8fc5d6,0,Number of other people present,1,,,ew_att_rating,8292,,,,,2022-06-30 13:44:31,85295
5ea3aa462d77061c2a8fc5d6,ma_choice_v4_social_pilot2,5ea3aa462d77061c2a8fc5d6,0,Number of other people present,1,3 people,12 people,direction,10640,,,,,2022-06-30 13:45:06,85296
5ea3aa462d77061c2a8fc5d6,ma_choice_v4_social_pilot2,5ea3aa462d77061c2a8fc5d6,0,Number of other people present,1,3 people,5 people,direction,4797,,,,,2022-06-30 13:45:11,85297
5ea3aa462d77061c2a8fc5d6,ma_choice_v4_social_pilot2,5ea3aa462d77061c2a8fc5d6,0,Number of other people present,1,5 people,8 people,direction,2303,,,,,2022-06-30 13:45:13,85298
5ea3aa462d77061c2a8fc5d6,ma_choice_v4_social_pilot2,5ea3aa462d77061c2a8fc5d6,0,Number of other people present,1,8 people,10 people,direction,1839,,,,,2022-06-30 13:45:15,85299
5ea3aa462d77061c2a8fc5d6,ma_choice_v4_social_pilot2,5ea3aa462d77061c2a8fc5d6,0,Number of other people present,1,10 people,12 people,direction,1710,,,,,2022-06-30 13:45:17,85300
5ea3aa462d77061c2a8fc5d6,ma_choice_v4_social_pilot2,5ea3aa462d77061c2a8fc5d6,1,Amount of alcohol present,0,None,A Lot,direction,2847,,,,,2022-06-30 13:45:21,85301
5ea3aa462d77061c2a8fc5d6,ma_choice_v4_social_pilot2,5ea3aa462d77061c2a8fc5d6,1,Amount of alcohol present,0,None,A Little,direction,2566,,,,,2022-06-30 13:45:24,85302
5ea3aa462d77061c2a8fc5d6,ma_choice_v4_social_pilot2,5ea3aa462d77061c2a8fc5d6,1,Amount of alcohol present,0,A Little,A Moderate Amount,direction,1622,,,,,2022-06-30 13:45:25,85303
5ea3aa462d77061c2a8fc5d6,ma_choice_v4_social_pilot2,5ea3aa462d77061c2a8fc5d6,1,Amount of alcohol present,0,A Moderate Amount,A Lot,direction,1631,,,,,2022-06-30 13:45:27,85304
5ea3aa462d77061c2a8fc5d6,ma_choice_v4_social_pilot2,5ea3aa462d77061c2a8fc5d6,2,Duration,1,30 minutes,90 minutes,direction,3263,,,,,2022-06-30 13:45:31,85305
5ea3aa462d77061c2a8fc5d6,ma_choice_v4_social_pilot2,5ea3aa462d77061c2a8fc5d6,2,Duration,1,30 minutes,50 minutes,direction,1342,,,,,2022-06-30 13:45:33,85306
5ea3aa462d77061c2a8fc5d6,ma_choice_v4_social_pilot2,5ea3aa462d77061c2a8fc5d6,2,Duration,1,50 minutes,60 minutes,direction,1982,,,,,2022-06-30 13:45:35,85307
5ea3aa462d77061c2a8fc5d6,ma_choice_v4_social_pilot2,5ea3aa462d77061c2a8fc5d6,2,Duration,1,60 minutes,80 minutes,direction,1039,,,,,2022-06-30 13:45:36,85308
5ea3aa462d77061c2a8fc5d6,ma_choice_v4_social_pilot2,5ea3aa462d77061c2a8fc5d6,2,Duration,1,80 minutes,90 minutes,direction,1439,,,,,2022-06-30 13:45:37,85309
5ea3aa462d77061c2a8fc5d6,ma_choice_v4_social_pilot2,5ea3aa462d77061c2a8fc5d6,3,Distance from home,0,5 min away,60 min away,direction,1743,,,,,2022-06-30 13:45:40,85310
5ea3aa462d77061c2a8fc5d6,ma_choice_v4_social_pilot2,5ea3aa462d77061c2a8fc5d6,3,Distance from home,0,5 min away,20 min away,direction,958,,,,,2022-06-30 13:45:41,85311
5ea3aa462d77061c2a8fc5d6,ma_choice_v4_social_pilot2,5ea3aa462d77061c2a8fc5d6,3,Distance from home,0,20 min away,35 min away,direction,919,,,,,2022-06-30 13:45:42,85312
5ea3aa462d77061c2a8fc5d6,ma_choice_v4_social_pilot2,5ea3aa462d77061c2a8fc5d6,3,Distance from home,0,35 min away,45 min away,direction,910,,,,,2022-06-30 13:45:43,85313
5ea3aa462d77061c2a8fc5d6,ma_choice_v4_social_pilot2,5ea3aa462d77061c2a8fc5d6,3,Distance from home,0,45 min away,60 min away,direction,1071,,,,,2022-06-30 13:45:44,85314
5ea3aa462d77061c2a8fc5d6,ma_choice_v4_social_pilot2,5ea3aa462d77061c2a8fc5d6,4,Quality of socializing,1,Very Bad,Very Good,direction,2559,,,,,2022-06-30 13:45:47,85315
5ea3aa462d77061c2a8fc5d6,ma_choice_v4_social_pilot2,5ea3aa462d77061c2a8fc5d6,4,Quality of socializing,1,Very Bad,Bad,direction,1711,,,,,2022-06-30 13:45:49,85316
5ea3aa462d77061c2a8fc5d6,ma_choice_v4_social_pilot2,5ea3aa462d77061c2a8fc5d6,4,Quality of socializing,1,Bad,Moderate,direction,2431,,,,,2022-06-30 13:45:51,85317
5ea3aa462d77061c2a8fc5d6,ma_choice_v4_social_pilot2,5ea3aa462d77061c2a8fc5d6,4,Quality of socializing,1,Moderate,Good,direction,1974,,,,,2022-06-30 13:45:53,85318
5ea3aa462d77061c2a8fc5d6,ma_choice_v4_social_pilot2,5ea3aa462d77061c2a8fc5d6,4,Quality of socializing,1,Good,Very Good,direction,1399,,,,,2022-06-30 13:45:55,85319
5ea3aa462d77061c2a8fc5d6,ma_choice_v4_social_pilot2,5ea3aa462d77061c2a8fc5d6,5,Amount of food present,1,None,A Lot,direction,3383,,,,,2022-06-30 13:45:59,85320
5ea3aa462d77061c2a8fc5d6,ma_choice_v4_social_pilot2,5ea3aa462d77061c2a8fc5d6,5,Amount of food present,1,None,A Little,direction,1135,,,,,2022-06-30 13:46:00,85321
5ea3aa462d77061c2a8fc5d6,ma_choice_v4_social_pilot2,5ea3aa462d77061c2a8fc5d6,5,Amount of food present,1,A Little,A Moderate Amount,direction,1158,,,,,2022-06-30 13:46:01,85322
5ea3aa462d77061c2a8fc5d6,ma_choice_v4_social_pilot2,5ea3aa462d77061c2a8fc5d6,5,Amount of food present,1,A Moderate Amount,A Lot,direction,1103,,,,,2022-06-30 13:46:02,85323
5ea3aa462d77061c2a8fc5d6,ma_choice_v4_social_pilot2,5ea3aa462d77061c2a8fc5d6,6,Quality of music playing,1,Very Bad,Very Good,direction,1480,,,,,2022-06-30 13:46:05,85324
5ea3aa462d77061c2a8fc5d6,ma_choice_v4_social_pilot2,5ea3aa462d77061c2a8fc5d6,6,Quality of music playing,1,Very Bad,Bad,direction,1487,,,,,2022-06-30 13:46:07,85325
5ea3aa462d77061c2a8fc5d6,ma_choice_v4_social_pilot2,5ea3aa462d77061c2a8fc5d6,6,Quality of music playing,1,Bad,Moderate,direction,1054,,,,,2022-06-30 13:46:08,85326
5ea3aa462d77061c2a8fc5d6,ma_choice_v4_social_pilot2,5ea3aa462d77061c2a8fc5d6,6,Quality of music playing,1,Moderate,Good,direction,1911,,,,,2022-06-30 13:46:10,85327
5ea3aa462d77061c2a8fc5d6,ma_choice_v4_social_pilot2,5ea3aa462d77061c2a8fc5d6,6,Quality of music playing,1,Good,Very Good,direction,1319,,,,,2022-06-30 13:46:11,85328
5becfeed4f191100013b46db,ma_choice_v4_social_pilot2,5becfeed4f191100013b46db,0,Quality of socializing,1,,,ew_att_rating,7472,,,,,2022-06-30 14:02:14,85329
5becfeed4f191100013b46db,ma_choice_v4_social_pilot2,5becfeed4f191100013b46db,0,Duration,1,,,ew_att_rating,7472,,,,,2022-06-30 14:02:14,85330
5becfeed4f191100013b46db,ma_choice_v4_social_pilot2,5becfeed4f191100013b46db,0,Distance from home,1,,,ew_att_rating,7472,,,,,2022-06-30 14:02:14,85331
5becfeed4f191100013b46db,ma_choice_v4_social_pilot2,5becfeed4f191100013b46db,0,Amount of food present,1,,,ew_att_rating,7472,,,,,2022-06-30 14:02:14,85332
5becfeed4f191100013b46db,ma_choice_v4_social_pilot2,5becfeed4f191100013b46db,3,Number of other people present,25,,,wad_att_rating,7335,,,,,2022-06-30 14:02:27,85333
5becfeed4f191100013b46db,ma_choice_v4_social_pilot2,5becfeed4f191100013b46db,1,Amount of alcohol present,0,,,wad_att_rating,2890,,,,,2022-06-30 14:02:30,85334
5becfeed4f191100013b46db,ma_choice_v4_social_pilot2,5becfeed4f191100013b46db,2,Amount of food present,76,,,wad_att_rating,4771,,,,,2022-06-30 14:02:35,85335
5becfeed4f191100013b46db,ma_choice_v4_social_pilot2,5becfeed4f191100013b46db,0,Distance from home,100,,,wad_att_rating,3389,,,,,2022-06-30 14:02:38,85336
5becfeed4f191100013b46db,ma_choice_v4_social_pilot2,5becfeed4f191100013b46db,5,Quality of music playing,50,,,wad_att_rating,5974,,,,,2022-06-30 14:02:44,85337
5becfeed4f191100013b46db,ma_choice_v4_social_pilot2,5becfeed4f191100013b46db,4,Duration,88,,,wad_att_rating,3614,,,,,2022-06-30 14:02:48,85338
5becfeed4f191100013b46db,ma_choice_v4_social_pilot2,5becfeed4f191100013b46db,6,Quality of socializing,63,,,wad_att_rating,3294,,,,,2022-06-30 14:02:51,85339
5becfeed4f191100013b46db,ma_choice_v4_social_pilot2,5becfeed4f191100013b46db,0,Distance from home,1,,,lex_att_rating,4527,,,,,2022-06-30 14:03:03,85340
5c6f2ab29d7a310001470418,ma_choice_v4_social_pilot2,5c6f2ab29d7a310001470418,0,Distance from home,25,,,wad_att_rating,6461,,,,,2022-06-30 14:06:06,85341
5c6f2ab29d7a310001470418,ma_choice_v4_social_pilot2,5c6f2ab29d7a310001470418,3,Number of other people present,0,,,wad_att_rating,9639,,,,,2022-06-30 14:06:16,85342
5c6f2ab29d7a310001470418,ma_choice_v4_social_pilot2,5c6f2ab29d7a310001470418,4,Duration,26,,,wad_att_rating,5659,,,,,2022-06-30 14:06:21,85343
5c6f2ab29d7a310001470418,ma_choice_v4_social_pilot2,5c6f2ab29d7a310001470418,6,Quality of socializing,64,,,wad_att_rating,6664,,,,,2022-06-30 14:06:28,85344
5c6f2ab29d7a310001470418,ma_choice_v4_social_pilot2,5c6f2ab29d7a310001470418,1,Amount of alcohol present,50,,,wad_att_rating,3068,,,,,2022-06-30 14:06:31,85345
5c6f2ab29d7a310001470418,ma_choice_v4_social_pilot2,5c6f2ab29d7a310001470418,5,Quality of music playing,100,,,wad_att_rating,3914,,,,,2022-06-30 14:06:35,85346
5c6f2ab29d7a310001470418,ma_choice_v4_social_pilot2,5c6f2ab29d7a310001470418,2,Amount of food present,63,,,wad_att_rating,3473,,,,,2022-06-30 14:06:38,85347
5c6f2ab29d7a310001470418,ma_choice_v4_social_pilot2,5c6f2ab29d7a310001470418,0,Distance from home,1,,,ew_att_rating,21132,,,,,2022-06-30 14:07:23,85348
5c6f2ab29d7a310001470418,ma_choice_v4_social_pilot2,5c6f2ab29d7a310001470418,0,Amount of food present,1,,,ew_att_rating,21132,,,,,2022-06-30 14:07:23,85349
5c6f2ab29d7a310001470418,ma_choice_v4_social_pilot2,5c6f2ab29d7a310001470418,0,Duration,1,,,ew_att_rating,21132,,,,,2022-06-30 14:07:23,85350
5c6f2ab29d7a310001470418,ma_choice_v4_social_pilot2,5c6f2ab29d7a310001470418,0,Quality of music playing,1,,,ew_att_rating,21132,,,,,2022-06-30 14:07:23,85351
5c6f2ab29d7a310001470418,ma_choice_v4_social_pilot2,5c6f2ab29d7a310001470418,0,Quality of socializing,1,,,ew_att_rating,21132,,,,,2022-06-30 14:07:23,85352
5c6f2ab29d7a310001470418,ma_choice_v4_social_pilot2,5c6f2ab29d7a310001470418,0,Amount of alcohol present,1,,,ew_att_rating,21132,,,,,2022-06-30 14:07:23,85353
5c6f2ab29d7a310001470418,ma_choice_v4_social_pilot2,5c6f2ab29d7a310001470418,0,Quality of music playing,1,,,lex_att_rating,4590,,,,,2022-06-30 14:07:34,85354
5becfeed4f191100013b46db,ma_choice_v4_social_pilot2,5becfeed4f191100013b46db,0,Distance from home,0,5 min away,60 min away,direction,5401,,,,,2022-06-30 14:08:32,85355
5becfeed4f191100013b46db,ma_choice_v4_social_pilot2,5becfeed4f191100013b46db,0,Distance from home,0,5 min away,20 min away,direction,4888,,,,,2022-06-30 14:08:37,85356
5becfeed4f191100013b46db,ma_choice_v4_social_pilot2,5becfeed4f191100013b46db,0,Distance from home,0,20 min away,35 min away,direction,3683,,,,,2022-06-30 14:08:41,85357
5becfeed4f191100013b46db,ma_choice_v4_social_pilot2,5becfeed4f191100013b46db,0,Distance from home,0,35 min away,45 min away,direction,3632,,,,,2022-06-30 14:08:44,85358
5becfeed4f191100013b46db,ma_choice_v4_social_pilot2,5becfeed4f191100013b46db,0,Distance from home,0,45 min away,60 min away,direction,2467,,,,,2022-06-30 14:08:47,85359
5becfeed4f191100013b46db,ma_choice_v4_social_pilot2,5becfeed4f191100013b46db,1,Amount of food present,1,None,A Lot,direction,2543,,,,,2022-06-30 14:08:51,85360
5becfeed4f191100013b46db,ma_choice_v4_social_pilot2,5becfeed4f191100013b46db,1,Amount of food present,1,None,A Little,direction,3156,,,,,2022-06-30 14:08:54,85361
5becfeed4f191100013b46db,ma_choice_v4_social_pilot2,5becfeed4f191100013b46db,1,Amount of food present,1,A Little,A Moderate Amount,direction,3396,,,,,2022-06-30 14:08:57,85362
5becfeed4f191100013b46db,ma_choice_v4_social_pilot2,5becfeed4f191100013b46db,1,Amount of food present,1,A Moderate Amount,A Lot,direction,4514,,,,,2022-06-30 14:09:02,85363
5becfeed4f191100013b46db,ma_choice_v4_social_pilot2,5becfeed4f191100013b46db,2,Quality of music playing,1,Very Bad,Very Good,direction,4394,,,,,2022-06-30 14:09:07,85364
5becfeed4f191100013b46db,ma_choice_v4_social_pilot2,5becfeed4f191100013b46db,2,Quality of music playing,1,Very Bad,Bad,direction,3550,,,,,2022-06-30 14:09:11,85365
5becfeed4f191100013b46db,ma_choice_v4_social_pilot2,5becfeed4f191100013b46db,2,Quality of music playing,1,Bad,Moderate,direction,2076,,,,,2022-06-30 14:09:13,85366
5becfeed4f191100013b46db,ma_choice_v4_social_pilot2,5becfeed4f191100013b46db,2,Quality of music playing,1,Moderate,Good,direction,4507,,,,,2022-06-30 14:09:18,85367
5becfeed4f191100013b46db,ma_choice_v4_social_pilot2,5becfeed4f191100013b46db,2,Quality of music playing,1,Good,Very Good,direction,2667,,,,,2022-06-30 14:09:20,85368
5becfeed4f191100013b46db,ma_choice_v4_social_pilot2,5becfeed4f191100013b46db,3,Amount of alcohol present,0,None,A Lot,direction,2256,,,,,2022-06-30 14:09:24,85369
5becfeed4f191100013b46db,ma_choice_v4_social_pilot2,5becfeed4f191100013b46db,3,Amount of alcohol present,0,None,A Little,direction,1746,,,,,2022-06-30 14:09:25,85370
5becfeed4f191100013b46db,ma_choice_v4_social_pilot2,5becfeed4f191100013b46db,3,Amount of alcohol present,0,A Little,A Moderate Amount,direction,4503,,,,,2022-06-30 14:09:30,85371
5becfeed4f191100013b46db,ma_choice_v4_social_pilot2,5becfeed4f191100013b46db,3,Amount of alcohol present,0,A Moderate Amount,A Lot,direction,2755,,,,,2022-06-30 14:09:33,85372
5becfeed4f191100013b46db,ma_choice_v4_social_pilot2,5becfeed4f191100013b46db,4,Number of other people present,0,3 people,12 people,direction,2724,,,,,2022-06-30 14:09:37,85373
5becfeed4f191100013b46db,ma_choice_v4_social_pilot2,5becfeed4f191100013b46db,4,Number of other people present,0,3 people,5 people,direction,1890,,,,,2022-06-30 14:09:39,85374
5becfeed4f191100013b46db,ma_choice_v4_social_pilot2,5becfeed4f191100013b46db,4,Number of other people present,0,5 people,8 people,direction,1979,,,,,2022-06-30 14:09:41,85375
5becfeed4f191100013b46db,ma_choice_v4_social_pilot2,5becfeed4f191100013b46db,4,Number of other people present,0,8 people,10 people,direction,1567,,,,,2022-06-30 14:09:42,85376
5becfeed4f191100013b46db,ma_choice_v4_social_pilot2,5becfeed4f191100013b46db,4,Number of other people present,0,10 people,12 people,direction,1877,,,,,2022-06-30 14:09:44,85377
5becfeed4f191100013b46db,ma_choice_v4_social_pilot2,5becfeed4f191100013b46db,5,Duration,0,30 minutes,90 minutes,direction,2120,,,,,2022-06-30 14:09:48,85378
5becfeed4f191100013b46db,ma_choice_v4_social_pilot2,5becfeed4f191100013b46db,5,Duration,0,30 minutes,50 minutes,direction,3090,,,,,2022-06-30 14:09:51,85379
5becfeed4f191100013b46db,ma_choice_v4_social_pilot2,5becfeed4f191100013b46db,5,Duration,0,50 minutes,60 minutes,direction,2251,,,,,2022-06-30 14:09:53,85380
5becfeed4f191100013b46db,ma_choice_v4_social_pilot2,5becfeed4f191100013b46db,5,Duration,0,60 minutes,80 minutes,direction,1991,,,,,2022-06-30 14:09:55,85381
5becfeed4f191100013b46db,ma_choice_v4_social_pilot2,5becfeed4f191100013b46db,5,Duration,0,80 minutes,90 minutes,direction,2050,,,,,2022-06-30 14:09:57,85382
5becfeed4f191100013b46db,ma_choice_v4_social_pilot2,5becfeed4f191100013b46db,6,Quality of socializing,1,Very Bad,Very Good,direction,2737,,,,,2022-06-30 14:10:01,85383
5becfeed4f191100013b46db,ma_choice_v4_social_pilot2,5becfeed4f191100013b46db,6,Quality of socializing,1,Very Bad,Bad,direction,2721,,,,,2022-06-30 14:10:04,85384
5becfeed4f191100013b46db,ma_choice_v4_social_pilot2,5becfeed4f191100013b46db,6,Quality of socializing,1,Bad,Moderate,direction,2214,,,,,2022-06-30 14:10:06,85385
5becfeed4f191100013b46db,ma_choice_v4_social_pilot2,5becfeed4f191100013b46db,6,Quality of socializing,1,Moderate,Good,direction,2738,,,,,2022-06-30 14:10:09,85386
5becfeed4f191100013b46db,ma_choice_v4_social_pilot2,5becfeed4f191100013b46db,6,Quality of socializing,1,Good,Very Good,direction,2329,,,,,2022-06-30 14:10:11,85387
6023d6c2657c850454e5a276,ma_choice_v4_social_pilot2,6023d6c2657c850454e5a276,0,Amount of food present,1,,,ew_att_rating,14284,,,,,2022-06-30 14:13:34,85388
6023d6c2657c850454e5a276,ma_choice_v4_social_pilot2,6023d6c2657c850454e5a276,0,Quality of socializing,1,,,ew_att_rating,14284,,,,,2022-06-30 14:13:34,85389
6023d6c2657c850454e5a276,ma_choice_v4_social_pilot2,6023d6c2657c850454e5a276,0,Amount of alcohol present,1,,,ew_att_rating,14284,,,,,2022-06-30 14:13:34,85390
6023d6c2657c850454e5a276,ma_choice_v4_social_pilot2,6023d6c2657c850454e5a276,0,Quality of music playing,1,,,ew_att_rating,14284,,,,,2022-06-30 14:13:34,85391
6023d6c2657c850454e5a276,ma_choice_v4_social_pilot2,6023d6c2657c850454e5a276,0,Distance from home,1,,,ew_att_rating,14284,,,,,2022-06-30 14:13:34,85392
6023d6c2657c850454e5a276,ma_choice_v4_social_pilot2,6023d6c2657c850454e5a276,6,Quality of socializing,88,,,wad_att_rating,8553,,,,,2022-06-30 14:13:48,85393
6023d6c2657c850454e5a276,ma_choice_v4_social_pilot2,6023d6c2657c850454e5a276,0,Distance from home,88,,,wad_att_rating,4486,,,,,2022-06-30 14:13:52,85394
6023d6c2657c850454e5a276,ma_choice_v4_social_pilot2,6023d6c2657c850454e5a276,2,Amount of food present,50,,,wad_att_rating,4235,,,,,2022-06-30 14:13:56,85395
6023d6c2657c850454e5a276,ma_choice_v4_social_pilot2,6023d6c2657c850454e5a276,3,Number of other people present,0,,,wad_att_rating,3149,,,,,2022-06-30 14:13:59,85396
6023d6c2657c850454e5a276,ma_choice_v4_social_pilot2,6023d6c2657c850454e5a276,4,Duration,0,,,wad_att_rating,2018,,,,,2022-06-30 14:14:02,85397
6023d6c2657c850454e5a276,ma_choice_v4_social_pilot2,6023d6c2657c850454e5a276,1,Amount of alcohol present,36,,,wad_att_rating,3503,,,,,2022-06-30 14:14:05,85398
6023d6c2657c850454e5a276,ma_choice_v4_social_pilot2,6023d6c2657c850454e5a276,5,Quality of music playing,39,,,wad_att_rating,3447,,,,,2022-06-30 14:14:08,85399
6023d6c2657c850454e5a276,ma_choice_v4_social_pilot2,6023d6c2657c850454e5a276,0,Distance from home,1,,,lex_att_rating,4525,,,,,2022-06-30 14:14:20,85400
6277f8b4e9145fb3dd34debd,ma_choice_v4_social_pilot2,6277f8b4e9145fb3dd34debd,0,Quality of socializing,1,,,ew_att_rating,8647,,,,,2022-06-30 14:16:33,85401
6277f8b4e9145fb3dd34debd,ma_choice_v4_social_pilot2,6277f8b4e9145fb3dd34debd,0,Quality of socializing,1,,,lex_att_rating,6226,,,,,2022-06-30 14:16:51,85402
6277f8b4e9145fb3dd34debd,ma_choice_v4_social_pilot2,6277f8b4e9145fb3dd34debd,5,Quality of music playing,0,,,wad_att_rating,6284,,,,,2022-06-30 14:17:09,85403
6277f8b4e9145fb3dd34debd,ma_choice_v4_social_pilot2,6277f8b4e9145fb3dd34debd,4,Duration,25,,,wad_att_rating,9521,,,,,2022-06-30 14:17:19,85404
6277f8b4e9145fb3dd34debd,ma_choice_v4_social_pilot2,6277f8b4e9145fb3dd34debd,3,Number of other people present,27,,,wad_att_rating,7404,,,,,2022-06-30 14:17:26,85405
6277f8b4e9145fb3dd34debd,ma_choice_v4_social_pilot2,6277f8b4e9145fb3dd34debd,6,Quality of socializing,100,,,wad_att_rating,6454,,,,,2022-06-30 14:17:32,85406
6277f8b4e9145fb3dd34debd,ma_choice_v4_social_pilot2,6277f8b4e9145fb3dd34debd,1,Amount of alcohol present,0,,,wad_att_rating,4317,,,,,2022-06-30 14:17:37,85407
6277f8b4e9145fb3dd34debd,ma_choice_v4_social_pilot2,6277f8b4e9145fb3dd34debd,0,Distance from home,13,,,wad_att_rating,6825,,,,,2022-06-30 14:17:44,85408
6277f8b4e9145fb3dd34debd,ma_choice_v4_social_pilot2,6277f8b4e9145fb3dd34debd,2,Amount of food present,18,,,wad_att_rating,6409,,,,,2022-06-30 14:17:50,85409
5c6f2ab29d7a310001470418,ma_choice_v4_social_pilot2,5c6f2ab29d7a310001470418,0,Distance from home,0,5 min away,60 min away,direction,18396,,,,,2022-06-30 14:17:55,85410
5c6f2ab29d7a310001470418,ma_choice_v4_social_pilot2,5c6f2ab29d7a310001470418,0,Distance from home,0,5 min away,20 min away,direction,28590,,,,,2022-06-30 14:18:24,85411
629e3f2e7aa7065ffef94278,ma_choice_v4_social_pilot2,629e3f2e7aa7065ffef94278,0,Quality of socializing,1,,,lex_att_rating,5759,,,,,2022-06-30 14:18:26,85412
5c6f2ab29d7a310001470418,ma_choice_v4_social_pilot2,5c6f2ab29d7a310001470418,0,Distance from home,0,20 min away,35 min away,direction,9224,,,,,2022-06-30 14:18:33,85413
5c6f2ab29d7a310001470418,ma_choice_v4_social_pilot2,5c6f2ab29d7a310001470418,0,Distance from home,0,35 min away,45 min away,direction,6117,,,,,2022-06-30 14:18:39,85414
5c6f2ab29d7a310001470418,ma_choice_v4_social_pilot2,5c6f2ab29d7a310001470418,0,Distance from home,0,45 min away,60 min away,direction,7456,,,,,2022-06-30 14:18:47,85415
629e3f2e7aa7065ffef94278,ma_choice_v4_social_pilot2,629e3f2e7aa7065ffef94278,0,Amount of alcohol present,1,,,ew_att_rating,21019,,,,,2022-06-30 14:19:02,85416
629e3f2e7aa7065ffef94278,ma_choice_v4_social_pilot2,629e3f2e7aa7065ffef94278,0,Distance from home,1,,,ew_att_rating,21019,,,,,2022-06-30 14:19:02,85417
629e3f2e7aa7065ffef94278,ma_choice_v4_social_pilot2,629e3f2e7aa7065ffef94278,0,Duration,1,,,ew_att_rating,21019,,,,,2022-06-30 14:19:03,85418
629e3f2e7aa7065ffef94278,ma_choice_v4_social_pilot2,629e3f2e7aa7065ffef94278,0,Quality of music playing,1,,,ew_att_rating,21019,,,,,2022-06-30 14:19:03,85419
629e3f2e7aa7065ffef94278,ma_choice_v4_social_pilot2,629e3f2e7aa7065ffef94278,0,Quality of socializing,1,,,ew_att_rating,21019,,,,,2022-06-30 14:19:03,85420
5c6f2ab29d7a310001470418,ma_choice_v4_social_pilot2,5c6f2ab29d7a310001470418,1,Amount of food present,1,None,A Lot,direction,14277,,,,,2022-06-30 14:19:03,85421
5c6f2ab29d7a310001470418,ma_choice_v4_social_pilot2,5c6f2ab29d7a310001470418,1,Amount of food present,1,None,A Little,direction,3943,,,,,2022-06-30 14:19:07,85422
5c6f2ab29d7a310001470418,ma_choice_v4_social_pilot2,5c6f2ab29d7a310001470418,1,Amount of food present,1,A Little,A Moderate Amount,direction,4320,,,,,2022-06-30 14:19:11,85423
5c6f2ab29d7a310001470418,ma_choice_v4_social_pilot2,5c6f2ab29d7a310001470418,1,Amount of food present,1,A Moderate Amount,A Lot,direction,3904,,,,,2022-06-30 14:19:15,85424
629e3f2e7aa7065ffef94278,ma_choice_v4_social_pilot2,629e3f2e7aa7065ffef94278,6,Quality of socializing,100,,,wad_att_rating,4246,,,,,2022-06-30 14:19:16,85425
6023d6c2657c850454e5a276,ma_choice_v4_social_pilot2,6023d6c2657c850454e5a276,0,Amount of alcohol present,1,None,A Lot,direction,12112,,,,,2022-06-30 14:19:20,85426
629e3f2e7aa7065ffef94278,ma_choice_v4_social_pilot2,629e3f2e7aa7065ffef94278,4,Duration,62,,,wad_att_rating,7661,,,,,2022-06-30 14:19:23,85427
5c6f2ab29d7a310001470418,ma_choice_v4_social_pilot2,5c6f2ab29d7a310001470418,2,Number of other people present,1,3 people,12 people,direction,6818,,,,,2022-06-30 14:19:25,85428
629e3f2e7aa7065ffef94278,ma_choice_v4_social_pilot2,629e3f2e7aa7065ffef94278,3,Number of other people present,0,,,wad_att_rating,3342,,,,,2022-06-30 14:19:27,85429
6023d6c2657c850454e5a276,ma_choice_v4_social_pilot2,6023d6c2657c850454e5a276,0,Amount of alcohol present,1,None,A Little,direction,8404,,,,,2022-06-30 14:19:28,85430
5c6f2ab29d7a310001470418,ma_choice_v4_social_pilot2,5c6f2ab29d7a310001470418,2,Number of other people present,1,3 people,5 people,direction,3683,,,,,2022-06-30 14:19:28,85431
5c6f2ab29d7a310001470418,ma_choice_v4_social_pilot2,5c6f2ab29d7a310001470418,2,Number of other people present,0,5 people,8 people,direction,3490,,,,,2022-06-30 14:19:32,85432
629e3f2e7aa7065ffef94278,ma_choice_v4_social_pilot2,629e3f2e7aa7065ffef94278,1,Amount of alcohol present,64,,,wad_att_rating,8110,,,,,2022-06-30 14:19:35,85433
5c6f2ab29d7a310001470418,ma_choice_v4_social_pilot2,5c6f2ab29d7a310001470418,2,Number of other people present,1,8 people,10 people,direction,3313,,,,,2022-06-30 14:19:35,85434
6023d6c2657c850454e5a276,ma_choice_v4_social_pilot2,6023d6c2657c850454e5a276,0,Amount of alcohol present,1,A Little,A Moderate Amount,direction,7700,,,,,2022-06-30 14:19:36,85435
5c6f2ab29d7a310001470418,ma_choice_v4_social_pilot2,5c6f2ab29d7a310001470418,2,Number of other people present,1,10 people,12 people,direction,3745,,,,,2022-06-30 14:19:39,85436
629e3f2e7aa7065ffef94278,ma_choice_v4_social_pilot2,629e3f2e7aa7065ffef94278,0,Distance from home,63,,,wad_att_rating,4630,,,,,2022-06-30 14:19:40,85437
629e3f2e7aa7065ffef94278,ma_choice_v4_social_pilot2,629e3f2e7aa7065ffef94278,5,Quality of music playing,75,,,wad_att_rating,4060,,,,,2022-06-30 14:19:44,85438
6023d6c2657c850454e5a276,ma_choice_v4_social_pilot2,6023d6c2657c850454e5a276,0,Amount of alcohol present,1,A Moderate Amount,A Lot,direction,7923,,,,,2022-06-30 14:19:44,85439
629e3f2e7aa7065ffef94278,ma_choice_v4_social_pilot2,629e3f2e7aa7065ffef94278,2,Amount of food present,37,,,wad_att_rating,3453,,,,,2022-06-30 14:19:47,85440
606dfa579ce4f86f0c7d3568,ma_choice_v4_social_pilot2,606dfa579ce4f86f0c7d3568,0,Number of other people present,1,,,lex_att_rating,12350,,,,,2022-06-30 14:19:48,85441
5c6f2ab29d7a310001470418,ma_choice_v4_social_pilot2,5c6f2ab29d7a310001470418,3,Duration,1,30 minutes,90 minutes,direction,8803,,,,,2022-06-30 14:19:50,85442
6023d6c2657c850454e5a276,ma_choice_v4_social_pilot2,6023d6c2657c850454e5a276,1,Quality of socializing,1,Very Bad,Very Good,direction,4191,,,,,2022-06-30 14:19:50,85443
5c6f2ab29d7a310001470418,ma_choice_v4_social_pilot2,5c6f2ab29d7a310001470418,3,Duration,1,30 minutes,50 minutes,direction,4483,,,,,2022-06-30 14:19:54,85444
6023d6c2657c850454e5a276,ma_choice_v4_social_pilot2,6023d6c2657c850454e5a276,1,Quality of socializing,1,Very Bad,Bad,direction,5490,,,,,2022-06-30 14:19:56,85445
5c6f2ab29d7a310001470418,ma_choice_v4_social_pilot2,5c6f2ab29d7a310001470418,3,Duration,1,50 minutes,60 minutes,direction,2553,,,,,2022-06-30 14:19:57,85446
606dfa579ce4f86f0c7d3568,ma_choice_v4_social_pilot2,606dfa579ce4f86f0c7d3568,4,Duration,8,,,wad_att_rating,3665,,,,,2022-06-30 14:19:58,85447
6023d6c2657c850454e5a276,ma_choice_v4_social_pilot2,6023d6c2657c850454e5a276,1,Quality of socializing,1,Bad,Moderate,direction,4764,,,,,2022-06-30 14:20:01,85448
5c6f2ab29d7a310001470418,ma_choice_v4_social_pilot2,5c6f2ab29d7a310001470418,3,Duration,1,60 minutes,80 minutes,direction,4373,,,,,2022-06-30 14:20:01,85449
606dfa579ce4f86f0c7d3568,ma_choice_v4_social_pilot2,606dfa579ce4f86f0c7d3568,0,Distance from home,70,,,wad_att_rating,4015,,,,,2022-06-30 14:20:02,85450
5c6f2ab29d7a310001470418,ma_choice_v4_social_pilot2,5c6f2ab29d7a310001470418,3,Duration,1,80 minutes,90 minutes,direction,2769,,,,,2022-06-30 14:20:04,85451
606dfa579ce4f86f0c7d3568,ma_choice_v4_social_pilot2,606dfa579ce4f86f0c7d3568,2,Amount of food present,8,,,wad_att_rating,3388,,,,,2022-06-30 14:20:05,85452
6023d6c2657c850454e5a276,ma_choice_v4_social_pilot2,6023d6c2657c850454e5a276,1,Quality of socializing,1,Moderate,Good,direction,4782,,,,,2022-06-30 14:20:05,85453
606dfa579ce4f86f0c7d3568,ma_choice_v4_social_pilot2,606dfa579ce4f86f0c7d3568,1,Amount of alcohol present,28,,,wad_att_rating,2483,,,,,2022-06-30 14:20:07,85454
6023d6c2657c850454e5a276,ma_choice_v4_social_pilot2,6023d6c2657c850454e5a276,1,Quality of socializing,1,Good,Very Good,direction,3965,,,,,2022-06-30 14:20:09,85455
606dfa579ce4f86f0c7d3568,ma_choice_v4_social_pilot2,606dfa579ce4f86f0c7d3568,3,Number of other people present,82,,,wad_att_rating,3044,,,,,2022-06-30 14:20:10,85456
5c6f2ab29d7a310001470418,ma_choice_v4_social_pilot2,5c6f2ab29d7a310001470418,4,Quality of socializing,1,Very Bad,Very Good,direction,5656,,,,,2022-06-30 14:20:11,85457
606dfa579ce4f86f0c7d3568,ma_choice_v4_social_pilot2,606dfa579ce4f86f0c7d3568,6,Quality of socializing,75,,,wad_att_rating,2650,,,,,2022-06-30 14:20:13,85458
5c6f2ab29d7a310001470418,ma_choice_v4_social_pilot2,5c6f2ab29d7a310001470418,4,Quality of socializing,1,Very Bad,Bad,direction,4121,,,,,2022-06-30 14:20:15,85459
606dfa579ce4f86f0c7d3568,ma_choice_v4_social_pilot2,606dfa579ce4f86f0c7d3568,5,Quality of music playing,27,,,wad_att_rating,2861,,,,,2022-06-30 14:20:16,85460
5c6f2ab29d7a310001470418,ma_choice_v4_social_pilot2,5c6f2ab29d7a310001470418,4,Quality of socializing,1,Bad,Moderate,direction,2754,,,,,2022-06-30 14:20:18,85461
62373694c3277138c1284e44,ma_choice_v4_social_pilot2,62373694c3277138c1284e44,5,Quality of music playing,100,,,wad_att_rating,8223,,,,,2022-06-30 14:20:21,85462
5c6f2ab29d7a310001470418,ma_choice_v4_social_pilot2,5c6f2ab29d7a310001470418,4,Quality of socializing,1,Moderate,Good,direction,3881,,,,,2022-06-30 14:20:22,85463
6023d6c2657c850454e5a276,ma_choice_v4_social_pilot2,6023d6c2657c850454e5a276,2,Duration,0,30 minutes,90 minutes,direction,11604,,,,,2022-06-30 14:20:23,85464
5c6f2ab29d7a310001470418,ma_choice_v4_social_pilot2,5c6f2ab29d7a310001470418,4,Quality of socializing,1,Good,Very Good,direction,2327,,,,,2022-06-30 14:20:24,85465
62373694c3277138c1284e44,ma_choice_v4_social_pilot2,62373694c3277138c1284e44,1,Amount of alcohol present,50,,,wad_att_rating,5769,,,,,2022-06-30 14:20:26,85466
6023d6c2657c850454e5a276,ma_choice_v4_social_pilot2,6023d6c2657c850454e5a276,2,Duration,1,30 minutes,50 minutes,direction,5858,,,,,2022-06-30 14:20:28,85467
5c6f2ab29d7a310001470418,ma_choice_v4_social_pilot2,5c6f2ab29d7a310001470418,5,Amount of alcohol present,1,None,A Lot,direction,5384,,,,,2022-06-30 14:20:31,85468
62373694c3277138c1284e44,ma_choice_v4_social_pilot2,62373694c3277138c1284e44,2,Amount of food present,75,,,wad_att_rating,5739,,,,,2022-06-30 14:20:32,85469
6023d6c2657c850454e5a276,ma_choice_v4_social_pilot2,6023d6c2657c850454e5a276,2,Duration,1,50 minutes,60 minutes,direction,3897,,,,,2022-06-30 14:20:32,85470
5c6f2ab29d7a310001470418,ma_choice_v4_social_pilot2,5c6f2ab29d7a310001470418,5,Amount of alcohol present,1,None,A Little,direction,3085,,,,,2022-06-30 14:20:35,85471
6023d6c2657c850454e5a276,ma_choice_v4_social_pilot2,6023d6c2657c850454e5a276,2,Duration,0,60 minutes,80 minutes,direction,2589,,,,,2022-06-30 14:20:35,85472
62373694c3277138c1284e44,ma_choice_v4_social_pilot2,62373694c3277138c1284e44,0,Distance from home,100,,,wad_att_rating,3202,,,,,2022-06-30 14:20:35,85473
5c6f2ab29d7a310001470418,ma_choice_v4_social_pilot2,5c6f2ab29d7a310001470418,5,Amount of alcohol present,1,A Little,A Moderate Amount,direction,2884,,,,,2022-06-30 14:20:37,85474
6023d6c2657c850454e5a276,ma_choice_v4_social_pilot2,6023d6c2657c850454e5a276,2,Duration,1,80 minutes,90 minutes,direction,3521,,,,,2022-06-30 14:20:38,85475
606dfa579ce4f86f0c7d3568,ma_choice_v4_social_pilot2,606dfa579ce4f86f0c7d3568,0,Distance from home,1,,,ew_att_rating,17211,,,,,2022-06-30 14:20:39,85476
606dfa579ce4f86f0c7d3568,ma_choice_v4_social_pilot2,606dfa579ce4f86f0c7d3568,0,Quality of socializing,1,,,ew_att_rating,17211,,,,,2022-06-30 14:20:39,85477
606dfa579ce4f86f0c7d3568,ma_choice_v4_social_pilot2,606dfa579ce4f86f0c7d3568,0,Number of other people present,1,,,ew_att_rating,17211,,,,,2022-06-30 14:20:39,85478
62373694c3277138c1284e44,ma_choice_v4_social_pilot2,62373694c3277138c1284e44,4,Duration,100,,,wad_att_rating,3966,,,,,2022-06-30 14:20:39,85479
5c6f2ab29d7a310001470418,ma_choice_v4_social_pilot2,5c6f2ab29d7a310001470418,5,Amount of alcohol present,1,A Moderate Amount,A Lot,direction,3173,,,,,2022-06-30 14:20:41,85480
62373694c3277138c1284e44,ma_choice_v4_social_pilot2,62373694c3277138c1284e44,3,Number of other people present,15,,,wad_att_rating,4244,,,,,2022-06-30 14:20:43,85481
6023d6c2657c850454e5a276,ma_choice_v4_social_pilot2,6023d6c2657c850454e5a276,3,Distance from home,0,5 min away,60 min away,direction,3945,,,,,2022-06-30 14:20:44,85482
5c6f2ab29d7a310001470418,ma_choice_v4_social_pilot2,5c6f2ab29d7a310001470418,6,Quality of music playing,1,Very Bad,Very Good,direction,3411,,,,,2022-06-30 14:20:45,85483
62373694c3277138c1284e44,ma_choice_v4_social_pilot2,62373694c3277138c1284e44,6,Quality of socializing,38,,,wad_att_rating,3448,,,,,2022-06-30 14:20:47,85484
6023d6c2657c850454e5a276,ma_choice_v4_social_pilot2,6023d6c2657c850454e5a276,3,Distance from home,0,5 min away,20 min away,direction,2998,,,,,2022-06-30 14:20:47,85485
6023d6c2657c850454e5a276,ma_choice_v4_social_pilot2,6023d6c2657c850454e5a276,3,Distance from home,0,20 min away,35 min away,direction,2241,,,,,2022-06-30 14:20:49,85486
5c6f2ab29d7a310001470418,ma_choice_v4_social_pilot2,5c6f2ab29d7a310001470418,6,Quality of music playing,1,Very Bad,Bad,direction,3646,,,,,2022-06-30 14:20:49,85487
5c6f2ab29d7a310001470418,ma_choice_v4_social_pilot2,5c6f2ab29d7a310001470418,6,Quality of music playing,1,Bad,Moderate,direction,2238,,,,,2022-06-30 14:20:51,85488
6023d6c2657c850454e5a276,ma_choice_v4_social_pilot2,6023d6c2657c850454e5a276,3,Distance from home,0,35 min away,45 min away,direction,2512,,,,,2022-06-30 14:20:52,85489
5c6f2ab29d7a310001470418,ma_choice_v4_social_pilot2,5c6f2ab29d7a310001470418,6,Quality of music playing,1,Moderate,Good,direction,2286,,,,,2022-06-30 14:20:53,85490
6023d6c2657c850454e5a276,ma_choice_v4_social_pilot2,6023d6c2657c850454e5a276,3,Distance from home,0,45 min away,60 min away,direction,2042,,,,,2022-06-30 14:20:54,85491
5c6f2ab29d7a310001470418,ma_choice_v4_social_pilot2,5c6f2ab29d7a310001470418,6,Quality of music playing,1,Good,Very Good,direction,2263,,,,,2022-06-30 14:20:56,85492
6023d6c2657c850454e5a276,ma_choice_v4_social_pilot2,6023d6c2657c850454e5a276,4,Amount of food present,1,None,A Lot,direction,2643,,,,,2022-06-30 14:20:58,85493
6023d6c2657c850454e5a276,ma_choice_v4_social_pilot2,6023d6c2657c850454e5a276,4,Amount of food present,1,None,A Little,direction,2370,,,,,2022-06-30 14:21:00,85494
6023d6c2657c850454e5a276,ma_choice_v4_social_pilot2,6023d6c2657c850454e5a276,4,Amount of food present,1,A Little,A Moderate Amount,direction,1972,,,,,2022-06-30 14:21:02,85495
6023d6c2657c850454e5a276,ma_choice_v4_social_pilot2,6023d6c2657c850454e5a276,4,Amount of food present,1,A Moderate Amount,A Lot,direction,2096,,,,,2022-06-30 14:21:04,85496
6023d6c2657c850454e5a276,ma_choice_v4_social_pilot2,6023d6c2657c850454e5a276,5,Number of other people present,1,3 people,12 people,direction,2976,,,,,2022-06-30 14:21:08,85497
6023d6c2657c850454e5a276,ma_choice_v4_social_pilot2,6023d6c2657c850454e5a276,5,Number of other people present,1,3 people,5 people,direction,2743,,,,,2022-06-30 14:21:11,85498
6023d6c2657c850454e5a276,ma_choice_v4_social_pilot2,6023d6c2657c850454e5a276,5,Number of other people present,1,5 people,8 people,direction,2285,,,,,2022-06-30 14:21:13,85499
62373694c3277138c1284e44,ma_choice_v4_social_pilot2,62373694c3277138c1284e44,0,Duration,1,,,lex_att_rating,19369,,,,,2022-06-30 14:21:14,85500
6023d6c2657c850454e5a276,ma_choice_v4_social_pilot2,6023d6c2657c850454e5a276,5,Number of other people present,1,8 people,10 people,direction,3226,,,,,2022-06-30 14:21:16,85501
6023d6c2657c850454e5a276,ma_choice_v4_social_pilot2,6023d6c2657c850454e5a276,5,Number of other people present,1,10 people,12 people,direction,1796,,,,,2022-06-30 14:21:18,85502
6023d6c2657c850454e5a276,ma_choice_v4_social_pilot2,6023d6c2657c850454e5a276,6,Quality of music playing,1,Very Bad,Very Good,direction,1782,,,,,2022-06-30 14:21:21,85503
606dfa579ce4f86f0c7d3568,ma_choice_v4_social_pilot2,606dfa579ce4f86f0c7d3568,0,Number of other people present,1,3 people,12 people,direction,11731,,,,,2022-06-30 14:21:23,85504
6023d6c2657c850454e5a276,ma_choice_v4_social_pilot2,6023d6c2657c850454e5a276,6,Quality of music playing,1,Very Bad,Bad,direction,4045,,,,,2022-06-30 14:21:25,85505
606dfa579ce4f86f0c7d3568,ma_choice_v4_social_pilot2,606dfa579ce4f86f0c7d3568,0,Number of other people present,1,3 people,5 people,direction,4138,,,,,2022-06-30 14:21:27,85506
6023d6c2657c850454e5a276,ma_choice_v4_social_pilot2,6023d6c2657c850454e5a276,6,Quality of music playing,1,Bad,Moderate,direction,2567,,,,,2022-06-30 14:21:28,85507
6023d6c2657c850454e5a276,ma_choice_v4_social_pilot2,6023d6c2657c850454e5a276,6,Quality of music playing,1,Moderate,Good,direction,1917,,,,,2022-06-30 14:21:30,85508
606dfa579ce4f86f0c7d3568,ma_choice_v4_social_pilot2,606dfa579ce4f86f0c7d3568,0,Number of other people present,1,5 people,8 people,direction,3493,,,,,2022-06-30 14:21:31,85509
6023d6c2657c850454e5a276,ma_choice_v4_social_pilot2,6023d6c2657c850454e5a276,6,Quality of music playing,1,Good,Very Good,direction,1901,,,,,2022-06-30 14:21:32,85510
606dfa579ce4f86f0c7d3568,ma_choice_v4_social_pilot2,606dfa579ce4f86f0c7d3568,0,Number of other people present,1,8 people,10 people,direction,1860,,,,,2022-06-30 14:21:33,85511
606dfa579ce4f86f0c7d3568,ma_choice_v4_social_pilot2,606dfa579ce4f86f0c7d3568,0,Number of other people present,1,10 people,12 people,direction,2389,,,,,2022-06-30 14:21:35,85512
62373694c3277138c1284e44,ma_choice_v4_social_pilot2,62373694c3277138c1284e44,0,Distance from home,1,,,ew_att_rating,9964,,,,,2022-06-30 14:21:36,85513
606dfa579ce4f86f0c7d3568,ma_choice_v4_social_pilot2,606dfa579ce4f86f0c7d3568,1,Duration,1,30 minutes,90 minutes,direction,4613,,,,,2022-06-30 14:21:41,85514
606dfa579ce4f86f0c7d3568,ma_choice_v4_social_pilot2,606dfa579ce4f86f0c7d3568,1,Duration,1,30 minutes,50 minutes,direction,1746,,,,,2022-06-30 14:21:43,85515
606dfa579ce4f86f0c7d3568,ma_choice_v4_social_pilot2,606dfa579ce4f86f0c7d3568,1,Duration,1,50 minutes,60 minutes,direction,2410,,,,,2022-06-30 14:21:46,85516
606dfa579ce4f86f0c7d3568,ma_choice_v4_social_pilot2,606dfa579ce4f86f0c7d3568,1,Duration,1,60 minutes,80 minutes,direction,1509,,,,,2022-06-30 14:21:47,85517
606dfa579ce4f86f0c7d3568,ma_choice_v4_social_pilot2,606dfa579ce4f86f0c7d3568,1,Duration,1,80 minutes,90 minutes,direction,1221,,,,,2022-06-30 14:21:48,85518
606dfa579ce4f86f0c7d3568,ma_choice_v4_social_pilot2,606dfa579ce4f86f0c7d3568,2,Distance from home,0,5 min away,60 min away,direction,3980,,,,,2022-06-30 14:21:54,85519
606dfa579ce4f86f0c7d3568,ma_choice_v4_social_pilot2,606dfa579ce4f86f0c7d3568,2,Distance from home,0,5 min away,20 min away,direction,3276,,,,,2022-06-30 14:21:57,85520
606dfa579ce4f86f0c7d3568,ma_choice_v4_social_pilot2,606dfa579ce4f86f0c7d3568,2,Distance from home,0,20 min away,35 min away,direction,1946,,,,,2022-06-30 14:21:59,85521
606dfa579ce4f86f0c7d3568,ma_choice_v4_social_pilot2,606dfa579ce4f86f0c7d3568,2,Distance from home,0,35 min away,45 min away,direction,4022,,,,,2022-06-30 14:22:03,85522
606dfa579ce4f86f0c7d3568,ma_choice_v4_social_pilot2,606dfa579ce4f86f0c7d3568,2,Distance from home,0,45 min away,60 min away,direction,1434,,,,,2022-06-30 14:22:04,85523
606dfa579ce4f86f0c7d3568,ma_choice_v4_social_pilot2,606dfa579ce4f86f0c7d3568,3,Quality of music playing,1,Very Bad,Very Good,direction,3391,,,,,2022-06-30 14:22:09,85524
606dfa579ce4f86f0c7d3568,ma_choice_v4_social_pilot2,606dfa579ce4f86f0c7d3568,3,Quality of music playing,1,Very Bad,Bad,direction,2363,,,,,2022-06-30 14:22:12,85525
606dfa579ce4f86f0c7d3568,ma_choice_v4_social_pilot2,606dfa579ce4f86f0c7d3568,3,Quality of music playing,1,Bad,Moderate,direction,1909,,,,,2022-06-30 14:22:13,85526
62373694c3277138c1284e44,ma_choice_v4_social_pilot2,62373694c3277138c1284e44,0,Quality of music playing,1,Very Bad,Very Good,direction,16528,,,,,2022-06-30 14:22:17,85527
606dfa579ce4f86f0c7d3568,ma_choice_v4_social_pilot2,606dfa579ce4f86f0c7d3568,3,Quality of music playing,1,Moderate,Good,direction,3582,,,,,2022-06-30 14:22:17,85528
606dfa579ce4f86f0c7d3568,ma_choice_v4_social_pilot2,606dfa579ce4f86f0c7d3568,3,Quality of music playing,1,Good,Very Good,direction,2060,,,,,2022-06-30 14:22:19,85529
606dfa579ce4f86f0c7d3568,ma_choice_v4_social_pilot2,606dfa579ce4f86f0c7d3568,4,Amount of food present,1,None,A Lot,direction,5024,,,,,2022-06-30 14:22:26,85530
606dfa579ce4f86f0c7d3568,ma_choice_v4_social_pilot2,606dfa579ce4f86f0c7d3568,4,Amount of food present,1,None,A Little,direction,1595,,,,,2022-06-30 14:22:27,85531
606dfa579ce4f86f0c7d3568,ma_choice_v4_social_pilot2,606dfa579ce4f86f0c7d3568,4,Amount of food present,1,A Little,A Moderate Amount,direction,1595,,,,,2022-06-30 14:22:29,85532
606dfa579ce4f86f0c7d3568,ma_choice_v4_social_pilot2,606dfa579ce4f86f0c7d3568,4,Amount of food present,1,A Moderate Amount,A Lot,direction,2435,,,,,2022-06-30 14:22:31,85533
606dfa579ce4f86f0c7d3568,ma_choice_v4_social_pilot2,606dfa579ce4f86f0c7d3568,5,Amount of alcohol present,1,None,A Lot,direction,1932,,,,,2022-06-30 14:22:34,85534
606dfa579ce4f86f0c7d3568,ma_choice_v4_social_pilot2,606dfa579ce4f86f0c7d3568,5,Amount of alcohol present,1,None,A Little,direction,1120,,,,,2022-06-30 14:22:36,85535
606dfa579ce4f86f0c7d3568,ma_choice_v4_social_pilot2,606dfa579ce4f86f0c7d3568,5,Amount of alcohol present,1,A Little,A Moderate Amount,direction,1389,,,,,2022-06-30 14:22:37,85536
606dfa579ce4f86f0c7d3568,ma_choice_v4_social_pilot2,606dfa579ce4f86f0c7d3568,5,Amount of alcohol present,1,A Moderate Amount,A Lot,direction,1727,,,,,2022-06-30 14:22:39,85537
606dfa579ce4f86f0c7d3568,ma_choice_v4_social_pilot2,606dfa579ce4f86f0c7d3568,6,Quality of socializing,1,Very Bad,Very Good,direction,1686,,,,,2022-06-30 14:22:41,85538
606dfa579ce4f86f0c7d3568,ma_choice_v4_social_pilot2,606dfa579ce4f86f0c7d3568,6,Quality of socializing,1,Very Bad,Bad,direction,2574,,,,,2022-06-30 14:22:44,85539
606dfa579ce4f86f0c7d3568,ma_choice_v4_social_pilot2,606dfa579ce4f86f0c7d3568,6,Quality of socializing,1,Bad,Moderate,direction,1323,,,,,2022-06-30 14:22:45,85540
606dfa579ce4f86f0c7d3568,ma_choice_v4_social_pilot2,606dfa579ce4f86f0c7d3568,6,Quality of socializing,1,Moderate,Good,direction,1072,,,,,2022-06-30 14:22:46,85541
606dfa579ce4f86f0c7d3568,ma_choice_v4_social_pilot2,606dfa579ce4f86f0c7d3568,6,Quality of socializing,1,Good,Very Good,direction,1211,,,,,2022-06-30 14:22:47,85542
62373694c3277138c1284e44,ma_choice_v4_social_pilot2,62373694c3277138c1284e44,0,Quality of music playing,1,Very Bad,Bad,direction,32143,,,,,2022-06-30 14:22:49,85543
62373694c3277138c1284e44,ma_choice_v4_social_pilot2,62373694c3277138c1284e44,0,Quality of music playing,0,Bad,Moderate,direction,5218,,,,,2022-06-30 14:22:54,85544
62373694c3277138c1284e44,ma_choice_v4_social_pilot2,62373694c3277138c1284e44,0,Quality of music playing,0,Moderate,Good,direction,5707,,,,,2022-06-30 14:23:00,85545
62373694c3277138c1284e44,ma_choice_v4_social_pilot2,62373694c3277138c1284e44,0,Quality of music playing,0,Good,Very Good,direction,3114,,,,,2022-06-30 14:23:03,85546
62373694c3277138c1284e44,ma_choice_v4_social_pilot2,62373694c3277138c1284e44,1,Duration,0,30 minutes,90 minutes,direction,3454,,,,,2022-06-30 14:23:08,85547
62373694c3277138c1284e44,ma_choice_v4_social_pilot2,62373694c3277138c1284e44,1,Duration,0,30 minutes,50 minutes,direction,2451,,,,,2022-06-30 14:23:11,85548
62373694c3277138c1284e44,ma_choice_v4_social_pilot2,62373694c3277138c1284e44,1,Duration,0,50 minutes,60 minutes,direction,3200,,,,,2022-06-30 14:23:13,85549
62373694c3277138c1284e44,ma_choice_v4_social_pilot2,62373694c3277138c1284e44,1,Duration,0,60 minutes,80 minutes,direction,2394,,,,,2022-06-30 14:23:16,85550
62373694c3277138c1284e44,ma_choice_v4_social_pilot2,62373694c3277138c1284e44,1,Duration,0,80 minutes,90 minutes,direction,3227,,,,,2022-06-30 14:23:19,85551
62373694c3277138c1284e44,ma_choice_v4_social_pilot2,62373694c3277138c1284e44,2,Quality of socializing,1,Very Bad,Very Good,direction,2498,,,,,2022-06-30 14:23:23,85552
62373694c3277138c1284e44,ma_choice_v4_social_pilot2,62373694c3277138c1284e44,2,Quality of socializing,1,Very Bad,Bad,direction,4058,,,,,2022-06-30 14:23:28,85553
62373694c3277138c1284e44,ma_choice_v4_social_pilot2,62373694c3277138c1284e44,2,Quality of socializing,0,Bad,Moderate,direction,1938,,,,,2022-06-30 14:23:30,85554
62373694c3277138c1284e44,ma_choice_v4_social_pilot2,62373694c3277138c1284e44,2,Quality of socializing,0,Moderate,Good,direction,2450,,,,,2022-06-30 14:23:32,85555
62373694c3277138c1284e44,ma_choice_v4_social_pilot2,62373694c3277138c1284e44,2,Quality of socializing,0,Good,Very Good,direction,2804,,,,,2022-06-30 14:23:35,85556
62373694c3277138c1284e44,ma_choice_v4_social_pilot2,62373694c3277138c1284e44,3,Amount of food present,1,None,A Lot,direction,2397,,,,,2022-06-30 14:23:38,85557
62373694c3277138c1284e44,ma_choice_v4_social_pilot2,62373694c3277138c1284e44,3,Amount of food present,1,None,A Little,direction,1986,,,,,2022-06-30 14:23:41,85558
62373694c3277138c1284e44,ma_choice_v4_social_pilot2,62373694c3277138c1284e44,3,Amount of food present,0,A Little,A Moderate Amount,direction,1643,,,,,2022-06-30 14:23:42,85559
62373694c3277138c1284e44,ma_choice_v4_social_pilot2,62373694c3277138c1284e44,3,Amount of food present,1,A Moderate Amount,A Lot,direction,1940,,,,,2022-06-30 14:23:44,85560
62373694c3277138c1284e44,ma_choice_v4_social_pilot2,62373694c3277138c1284e44,4,Amount of alcohol present,0,None,A Lot,direction,2222,,,,,2022-06-30 14:23:47,85561
62373694c3277138c1284e44,ma_choice_v4_social_pilot2,62373694c3277138c1284e44,4,Amount of alcohol present,0,None,A Little,direction,1755,,,,,2022-06-30 14:23:49,85562
62373694c3277138c1284e44,ma_choice_v4_social_pilot2,62373694c3277138c1284e44,4,Amount of alcohol present,0,A Little,A Moderate Amount,direction,3114,,,,,2022-06-30 14:23:52,85563
62373694c3277138c1284e44,ma_choice_v4_social_pilot2,62373694c3277138c1284e44,4,Amount of alcohol present,0,A Moderate Amount,A Lot,direction,2443,,,,,2022-06-30 14:23:55,85564
62373694c3277138c1284e44,ma_choice_v4_social_pilot2,62373694c3277138c1284e44,5,Number of other people present,0,3 people,12 people,direction,3895,,,,,2022-06-30 14:24:00,85565
62373694c3277138c1284e44,ma_choice_v4_social_pilot2,62373694c3277138c1284e44,5,Number of other people present,0,3 people,5 people,direction,1563,,,,,2022-06-30 14:24:01,85566
62373694c3277138c1284e44,ma_choice_v4_social_pilot2,62373694c3277138c1284e44,5,Number of other people present,0,5 people,8 people,direction,2130,,,,,2022-06-30 14:24:03,85567
62373694c3277138c1284e44,ma_choice_v4_social_pilot2,62373694c3277138c1284e44,5,Number of other people present,0,8 people,10 people,direction,4140,,,,,2022-06-30 14:24:08,85568
62373694c3277138c1284e44,ma_choice_v4_social_pilot2,62373694c3277138c1284e44,5,Number of other people present,0,10 people,12 people,direction,2153,,,,,2022-06-30 14:24:10,85569
62373694c3277138c1284e44,ma_choice_v4_social_pilot2,62373694c3277138c1284e44,6,Distance from home,0,5 min away,60 min away,direction,2454,,,,,2022-06-30 14:24:13,85570
5fc24a91ff661a07d0fd22be,ma_choice_v4_social_pilot2,5fc24a91ff661a07d0fd22be,5,Quality of music playing,0,,,wad_att_rating,2846,,,,,2022-06-30 14:24:14,85571
62373694c3277138c1284e44,ma_choice_v4_social_pilot2,62373694c3277138c1284e44,6,Distance from home,0,5 min away,20 min away,direction,1995,,,,,2022-06-30 14:24:16,85572
62373694c3277138c1284e44,ma_choice_v4_social_pilot2,62373694c3277138c1284e44,6,Distance from home,0,20 min away,35 min away,direction,1643,,,,,2022-06-30 14:24:17,85573
5fc24a91ff661a07d0fd22be,ma_choice_v4_social_pilot2,5fc24a91ff661a07d0fd22be,4,Duration,0,,,wad_att_rating,4062,,,,,2022-06-30 14:24:18,85574
62373694c3277138c1284e44,ma_choice_v4_social_pilot2,62373694c3277138c1284e44,6,Distance from home,0,35 min away,45 min away,direction,2858,,,,,2022-06-30 14:24:20,85575
5fc24a91ff661a07d0fd22be,ma_choice_v4_social_pilot2,5fc24a91ff661a07d0fd22be,3,Number of other people present,12,,,wad_att_rating,3070,,,,,2022-06-30 14:24:21,85576
62373694c3277138c1284e44,ma_choice_v4_social_pilot2,62373694c3277138c1284e44,6,Distance from home,0,45 min away,60 min away,direction,1969,,,,,2022-06-30 14:24:22,85577
5fc24a91ff661a07d0fd22be,ma_choice_v4_social_pilot2,5fc24a91ff661a07d0fd22be,1,Amount of alcohol present,41,,,wad_att_rating,4206,,,,,2022-06-30 14:24:26,85578
5fc24a91ff661a07d0fd22be,ma_choice_v4_social_pilot2,5fc24a91ff661a07d0fd22be,6,Quality of socializing,100,,,wad_att_rating,2710,,,,,2022-06-30 14:24:28,85579
5fc24a91ff661a07d0fd22be,ma_choice_v4_social_pilot2,5fc24a91ff661a07d0fd22be,2,Amount of food present,26,,,wad_att_rating,3014,,,,,2022-06-30 14:24:31,85580
5fc24a91ff661a07d0fd22be,ma_choice_v4_social_pilot2,5fc24a91ff661a07d0fd22be,0,Distance from home,24,,,wad_att_rating,2694,,,,,2022-06-30 14:24:34,85581
5fc24a91ff661a07d0fd22be,ma_choice_v4_social_pilot2,5fc24a91ff661a07d0fd22be,0,Quality of socializing,1,,,lex_att_rating,3750,,,,,2022-06-30 14:24:52,85582
5fc24a91ff661a07d0fd22be,ma_choice_v4_social_pilot2,5fc24a91ff661a07d0fd22be,0,Quality of socializing,1,,,ew_att_rating,10653,,,,,2022-06-30 14:25:12,85583
610898813e48dc2864965122,ma_choice_v4_social_pilot2,610898813e48dc2864965122,0,Distance from home,1,,,ew_att_rating,8478,,,,,2022-06-30 14:26:16,85584
610898813e48dc2864965122,ma_choice_v4_social_pilot2,610898813e48dc2864965122,0,Duration,1,,,ew_att_rating,8478,,,,,2022-06-30 14:26:16,85585
610898813e48dc2864965122,ma_choice_v4_social_pilot2,610898813e48dc2864965122,0,Amount of food present,1,,,ew_att_rating,8478,,,,,2022-06-30 14:26:16,85586
610898813e48dc2864965122,ma_choice_v4_social_pilot2,610898813e48dc2864965122,1,Amount of alcohol present,50,,,wad_att_rating,5015,,,,,2022-06-30 14:26:27,85587
610898813e48dc2864965122,ma_choice_v4_social_pilot2,610898813e48dc2864965122,2,Amount of food present,75,,,wad_att_rating,3219,,,,,2022-06-30 14:26:30,85588
610898813e48dc2864965122,ma_choice_v4_social_pilot2,610898813e48dc2864965122,4,Duration,100,,,wad_att_rating,4607,,,,,2022-06-30 14:26:35,85589
610898813e48dc2864965122,ma_choice_v4_social_pilot2,610898813e48dc2864965122,0,Distance from home,65,,,wad_att_rating,4990,,,,,2022-06-30 14:26:40,85590
610898813e48dc2864965122,ma_choice_v4_social_pilot2,610898813e48dc2864965122,6,Quality of socializing,0,,,wad_att_rating,3447,,,,,2022-06-30 14:26:43,85591
610898813e48dc2864965122,ma_choice_v4_social_pilot2,610898813e48dc2864965122,3,Number of other people present,0,,,wad_att_rating,1158,,,,,2022-06-30 14:26:44,85592
610898813e48dc2864965122,ma_choice_v4_social_pilot2,610898813e48dc2864965122,5,Quality of music playing,0,,,wad_att_rating,1373,,,,,2022-06-30 14:26:46,85593
610898813e48dc2864965122,ma_choice_v4_social_pilot2,610898813e48dc2864965122,0,Duration,1,,,lex_att_rating,6341,,,,,2022-06-30 14:27:00,85594
600dd1ea271cf06201979123,ma_choice_v4_social_pilot2,600dd1ea271cf06201979123,0,Distance from home,75,,,wad_att_rating,7551,,,,,2022-06-30 14:27:28,85595
600dd1ea271cf06201979123,ma_choice_v4_social_pilot2,600dd1ea271cf06201979123,2,Amount of food present,91,,,wad_att_rating,5035,,,,,2022-06-30 14:27:33,85596
600dd1ea271cf06201979123,ma_choice_v4_social_pilot2,600dd1ea271cf06201979123,4,Duration,64,,,wad_att_rating,5017,,,,,2022-06-30 14:27:38,85597
629b4d940b984723e59c13ce,ma_choice_v4_social_pilot2,629b4d940b984723e59c13ce,5,Quality of music playing,73,,,wad_att_rating,6843,,,,,2022-06-30 14:27:42,85598
600dd1ea271cf06201979123,ma_choice_v4_social_pilot2,600dd1ea271cf06201979123,1,Amount of alcohol present,62,,,wad_att_rating,3605,,,,,2022-06-30 14:27:42,85599
600dd1ea271cf06201979123,ma_choice_v4_social_pilot2,600dd1ea271cf06201979123,3,Number of other people present,46,,,wad_att_rating,4846,,,,,2022-06-30 14:27:46,85600
629b4d940b984723e59c13ce,ma_choice_v4_social_pilot2,629b4d940b984723e59c13ce,0,Distance from home,11,,,wad_att_rating,6604,,,,,2022-06-30 14:27:48,85601
600dd1ea271cf06201979123,ma_choice_v4_social_pilot2,600dd1ea271cf06201979123,6,Quality of socializing,70,,,wad_att_rating,3290,,,,,2022-06-30 14:27:50,85602
610898813e48dc2864965122,ma_choice_v4_social_pilot2,610898813e48dc2864965122,0,Amount of food present,1,None,A Lot,direction,9567,,,,,2022-06-30 14:27:52,85603
600dd1ea271cf06201979123,ma_choice_v4_social_pilot2,600dd1ea271cf06201979123,5,Quality of music playing,49,,,wad_att_rating,3460,,,,,2022-06-30 14:27:53,85604
629b4d940b984723e59c13ce,ma_choice_v4_social_pilot2,629b4d940b984723e59c13ce,1,Amount of alcohol present,11,,,wad_att_rating,5767,,,,,2022-06-30 14:27:54,85605
610898813e48dc2864965122,ma_choice_v4_social_pilot2,610898813e48dc2864965122,0,Amount of food present,1,None,A Little,direction,6532,,,,,2022-06-30 14:27:58,85606
629b4d940b984723e59c13ce,ma_choice_v4_social_pilot2,629b4d940b984723e59c13ce,3,Number of other people present,49,,,wad_att_rating,8086,,,,,2022-06-30 14:28:02,85607
629b4d940b984723e59c13ce,ma_choice_v4_social_pilot2,629b4d940b984723e59c13ce,4,Duration,51,,,wad_att_rating,4746,,,,,2022-06-30 14:28:07,85608
610898813e48dc2864965122,ma_choice_v4_social_pilot2,610898813e48dc2864965122,0,Amount of food present,1,A Little,A Moderate Amount,direction,8917,,,,,2022-06-30 14:28:07,85609
629b4d940b984723e59c13ce,ma_choice_v4_social_pilot2,629b4d940b984723e59c13ce,2,Amount of food present,75,,,wad_att_rating,4393,,,,,2022-06-30 14:28:11,85610
600dd1ea271cf06201979123,ma_choice_v4_social_pilot2,600dd1ea271cf06201979123,0,Amount of alcohol present,1,,,ew_att_rating,7117,,,,,2022-06-30 14:28:11,85611
600dd1ea271cf06201979123,ma_choice_v4_social_pilot2,600dd1ea271cf06201979123,0,Distance from home,1,,,ew_att_rating,7117,,,,,2022-06-30 14:28:11,85612
600dd1ea271cf06201979123,ma_choice_v4_social_pilot2,600dd1ea271cf06201979123,0,Amount of food present,1,,,ew_att_rating,7117,,,,,2022-06-30 14:28:11,85613
610898813e48dc2864965122,ma_choice_v4_social_pilot2,610898813e48dc2864965122,0,Amount of food present,1,A Moderate Amount,A Lot,direction,5166,,,,,2022-06-30 14:28:12,85614
629b4d940b984723e59c13ce,ma_choice_v4_social_pilot2,629b4d940b984723e59c13ce,6,Quality of socializing,100,,,wad_att_rating,3467,,,,,2022-06-30 14:28:15,85615
600dd1ea271cf06201979123,ma_choice_v4_social_pilot2,600dd1ea271cf06201979123,0,Distance from home,1,,,lex_att_rating,5316,,,,,2022-06-30 14:28:22,85616
610898813e48dc2864965122,ma_choice_v4_social_pilot2,610898813e48dc2864965122,1,Distance from home,0,5 min away,60 min away,direction,8720,,,,,2022-06-30 14:28:23,85617
610898813e48dc2864965122,ma_choice_v4_social_pilot2,610898813e48dc2864965122,1,Distance from home,0,5 min away,20 min away,direction,4030,,,,,2022-06-30 14:28:27,85618
629b4d940b984723e59c13ce,ma_choice_v4_social_pilot2,629b4d940b984723e59c13ce,0,Quality of socializing,1,,,lex_att_rating,8795,,,,,2022-06-30 14:28:27,85619
610898813e48dc2864965122,ma_choice_v4_social_pilot2,610898813e48dc2864965122,1,Distance from home,0,20 min away,35 min away,direction,3628,,,,,2022-06-30 14:28:30,85620
610898813e48dc2864965122,ma_choice_v4_social_pilot2,610898813e48dc2864965122,1,Distance from home,0,35 min away,45 min away,direction,2598,,,,,2022-06-30 14:28:33,85621
610898813e48dc2864965122,ma_choice_v4_social_pilot2,610898813e48dc2864965122,1,Distance from home,0,45 min away,60 min away,direction,2998,,,,,2022-06-30 14:28:36,85622
610898813e48dc2864965122,ma_choice_v4_social_pilot2,610898813e48dc2864965122,2,Amount of alcohol present,1,None,A Lot,direction,4344,,,,,2022-06-30 14:28:41,85623
5700616b8a49c7000d0c73ad,ma_choice_v4_social_pilot2,5700616b8a49c7000d0c73ad,0,Number of other people present,1,,,ew_att_rating,13154,,,,,2022-06-30 14:28:42,85624
5700616b8a49c7000d0c73ad,ma_choice_v4_social_pilot2,5700616b8a49c7000d0c73ad,0,Quality of socializing,1,,,ew_att_rating,13154,,,,,2022-06-30 14:28:42,85625
629b4d940b984723e59c13ce,ma_choice_v4_social_pilot2,629b4d940b984723e59c13ce,0,Quality of music playing,1,,,ew_att_rating,15531,,,,,2022-06-30 14:28:45,85626
629b4d940b984723e59c13ce,ma_choice_v4_social_pilot2,629b4d940b984723e59c13ce,0,Distance from home,1,,,ew_att_rating,15531,,,,,2022-06-30 14:28:45,85627
629b4d940b984723e59c13ce,ma_choice_v4_social_pilot2,629b4d940b984723e59c13ce,0,Quality of socializing,1,,,ew_att_rating,15531,,,,,2022-06-30 14:28:45,85628
610898813e48dc2864965122,ma_choice_v4_social_pilot2,610898813e48dc2864965122,2,Amount of alcohol present,1,None,A Little,direction,4702,,,,,2022-06-30 14:28:46,85629
610898813e48dc2864965122,ma_choice_v4_social_pilot2,610898813e48dc2864965122,2,Amount of alcohol present,1,A Little,A Moderate Amount,direction,3357,,,,,2022-06-30 14:28:49,85630
610898813e48dc2864965122,ma_choice_v4_social_pilot2,610898813e48dc2864965122,2,Amount of alcohol present,1,A Moderate Amount,A Lot,direction,2670,,,,,2022-06-30 14:28:52,85631
600dd1ea271cf06201979123,ma_choice_v4_social_pilot2,600dd1ea271cf06201979123,0,Quality of music playing,1,Very Bad,Very Good,direction,8411,,,,,2022-06-30 14:28:53,85632
610898813e48dc2864965122,ma_choice_v4_social_pilot2,610898813e48dc2864965122,3,Duration,0,30 minutes,90 minutes,direction,4247,,,,,2022-06-30 14:28:57,85633
5700616b8a49c7000d0c73ad,ma_choice_v4_social_pilot2,5700616b8a49c7000d0c73ad,0,Quality of socializing,1,,,lex_att_rating,2310,,,,,2022-06-30 14:28:58,85634
610898813e48dc2864965122,ma_choice_v4_social_pilot2,610898813e48dc2864965122,3,Duration,0,30 minutes,50 minutes,direction,3997,,,,,2022-06-30 14:29:01,85635
600dd1ea271cf06201979123,ma_choice_v4_social_pilot2,600dd1ea271cf06201979123,0,Quality of music playing,1,Very Bad,Bad,direction,9898,,,,,2022-06-30 14:29:03,85636
610898813e48dc2864965122,ma_choice_v4_social_pilot2,610898813e48dc2864965122,3,Duration,0,50 minutes,60 minutes,direction,1661,,,,,2022-06-30 14:29:03,85637
610898813e48dc2864965122,ma_choice_v4_social_pilot2,610898813e48dc2864965122,3,Duration,0,60 minutes,80 minutes,direction,1830,,,,,2022-06-30 14:29:05,85638
600dd1ea271cf06201979123,ma_choice_v4_social_pilot2,600dd1ea271cf06201979123,0,Quality of music playing,1,Bad,Moderate,direction,3559,,,,,2022-06-30 14:29:06,85639
610898813e48dc2864965122,ma_choice_v4_social_pilot2,610898813e48dc2864965122,3,Duration,0,80 minutes,90 minutes,direction,2045,,,,,2022-06-30 14:29:07,85640
600dd1ea271cf06201979123,ma_choice_v4_social_pilot2,600dd1ea271cf06201979123,0,Quality of music playing,1,Moderate,Good,direction,2295,,,,,2022-06-30 14:29:08,85641
5700616b8a49c7000d0c73ad,ma_choice_v4_social_pilot2,5700616b8a49c7000d0c73ad,5,Quality of music playing,50,,,wad_att_rating,5186,,,,,2022-06-30 14:29:09,85642
600dd1ea271cf06201979123,ma_choice_v4_social_pilot2,600dd1ea271cf06201979123,0,Quality of music playing,1,Good,Very Good,direction,3367,,,,,2022-06-30 14:29:12,85643
5700616b8a49c7000d0c73ad,ma_choice_v4_social_pilot2,5700616b8a49c7000d0c73ad,1,Amount of alcohol present,38,,,wad_att_rating,4271,,,,,2022-06-30 14:29:13,85644
610898813e48dc2864965122,ma_choice_v4_social_pilot2,610898813e48dc2864965122,4,Quality of socializing,1,Very Bad,Very Good,direction,5607,,,,,2022-06-30 14:29:14,85645
600dd1ea271cf06201979123,ma_choice_v4_social_pilot2,600dd1ea271cf06201979123,1,Amount of alcohol present,1,None,A Lot,direction,3656,,,,,2022-06-30 14:29:17,85646
5700616b8a49c7000d0c73ad,ma_choice_v4_social_pilot2,5700616b8a49c7000d0c73ad,0,Distance from home,38,,,wad_att_rating,5148,,,,,2022-06-30 14:29:18,85647
610898813e48dc2864965122,ma_choice_v4_social_pilot2,610898813e48dc2864965122,4,Quality of socializing,1,Very Bad,Bad,direction,4709,,,,,2022-06-30 14:29:18,85648
600dd1ea271cf06201979123,ma_choice_v4_social_pilot2,600dd1ea271cf06201979123,1,Amount of alcohol present,1,None,A Little,direction,1642,,,,,2022-06-30 14:29:19,85649
610898813e48dc2864965122,ma_choice_v4_social_pilot2,610898813e48dc2864965122,4,Quality of socializing,1,Bad,Moderate,direction,3109,,,,,2022-06-30 14:29:21,85650
600dd1ea271cf06201979123,ma_choice_v4_social_pilot2,600dd1ea271cf06201979123,1,Amount of alcohol present,1,A Little,A Moderate Amount,direction,3073,,,,,2022-06-30 14:29:22,85651
5700616b8a49c7000d0c73ad,ma_choice_v4_social_pilot2,5700616b8a49c7000d0c73ad,4,Duration,25,,,wad_att_rating,3969,,,,,2022-06-30 14:29:22,85652
600dd1ea271cf06201979123,ma_choice_v4_social_pilot2,600dd1ea271cf06201979123,1,Amount of alcohol present,0,A Moderate Amount,A Lot,direction,2477,,,,,2022-06-30 14:29:24,85653
5700616b8a49c7000d0c73ad,ma_choice_v4_social_pilot2,5700616b8a49c7000d0c73ad,2,Amount of food present,37,,,wad_att_rating,2350,,,,,2022-06-30 14:29:24,85654
610898813e48dc2864965122,ma_choice_v4_social_pilot2,610898813e48dc2864965122,4,Quality of socializing,1,Moderate,Good,direction,4300,,,,,2022-06-30 14:29:26,85655
600dd1ea271cf06201979123,ma_choice_v4_social_pilot2,600dd1ea271cf06201979123,2,Distance from home,0,5 min away,60 min away,direction,1981,,,,,2022-06-30 14:29:27,85656
5700616b8a49c7000d0c73ad,ma_choice_v4_social_pilot2,5700616b8a49c7000d0c73ad,6,Quality of socializing,87,,,wad_att_rating,4563,,,,,2022-06-30 14:29:29,85657
600dd1ea271cf06201979123,ma_choice_v4_social_pilot2,600dd1ea271cf06201979123,2,Distance from home,0,5 min away,20 min away,direction,1645,,,,,2022-06-30 14:29:29,85658
610898813e48dc2864965122,ma_choice_v4_social_pilot2,610898813e48dc2864965122,4,Quality of socializing,1,Good,Very Good,direction,4118,,,,,2022-06-30 14:29:30,85659
600dd1ea271cf06201979123,ma_choice_v4_social_pilot2,600dd1ea271cf06201979123,2,Distance from home,0,20 min away,35 min away,direction,1789,,,,,2022-06-30 14:29:31,85660
5700616b8a49c7000d0c73ad,ma_choice_v4_social_pilot2,5700616b8a49c7000d0c73ad,3,Number of other people present,76,,,wad_att_rating,3173,,,,,2022-06-30 14:29:32,85661
600dd1ea271cf06201979123,ma_choice_v4_social_pilot2,600dd1ea271cf06201979123,2,Distance from home,0,35 min away,45 min away,direction,1803,,,,,2022-06-30 14:29:33,85662
600dd1ea271cf06201979123,ma_choice_v4_social_pilot2,600dd1ea271cf06201979123,2,Distance from home,0,45 min away,60 min away,direction,1610,,,,,2022-06-30 14:29:34,85663
610898813e48dc2864965122,ma_choice_v4_social_pilot2,610898813e48dc2864965122,5,Number of other people present,0,3 people,12 people,direction,4743,,,,,2022-06-30 14:29:36,85664
600dd1ea271cf06201979123,ma_choice_v4_social_pilot2,600dd1ea271cf06201979123,3,Number of other people present,1,3 people,12 people,direction,2075,,,,,2022-06-30 14:29:37,85665
600dd1ea271cf06201979123,ma_choice_v4_social_pilot2,600dd1ea271cf06201979123,3,Number of other people present,0,3 people,5 people,direction,3091,,,,,2022-06-30 14:29:41,85666
610898813e48dc2864965122,ma_choice_v4_social_pilot2,610898813e48dc2864965122,5,Number of other people present,0,3 people,5 people,direction,5365,,,,,2022-06-30 14:29:42,85667
600dd1ea271cf06201979123,ma_choice_v4_social_pilot2,600dd1ea271cf06201979123,3,Number of other people present,0,5 people,8 people,direction,2076,,,,,2022-06-30 14:29:43,85668
610898813e48dc2864965122,ma_choice_v4_social_pilot2,610898813e48dc2864965122,5,Number of other people present,0,5 people,8 people,direction,2581,,,,,2022-06-30 14:29:44,85669
600dd1ea271cf06201979123,ma_choice_v4_social_pilot2,600dd1ea271cf06201979123,3,Number of other people present,0,8 people,10 people,direction,2137,,,,,2022-06-30 14:29:45,85670
600dd1ea271cf06201979123,ma_choice_v4_social_pilot2,600dd1ea271cf06201979123,3,Number of other people present,1,10 people,12 people,direction,2059,,,,,2022-06-30 14:29:47,85671
610898813e48dc2864965122,ma_choice_v4_social_pilot2,610898813e48dc2864965122,5,Number of other people present,0,8 people,10 people,direction,3197,,,,,2022-06-30 14:29:47,85672
610898813e48dc2864965122,ma_choice_v4_social_pilot2,610898813e48dc2864965122,5,Number of other people present,0,10 people,12 people,direction,2548,,,,,2022-06-30 14:29:50,85673
600dd1ea271cf06201979123,ma_choice_v4_social_pilot2,600dd1ea271cf06201979123,4,Duration,0,30 minutes,90 minutes,direction,3286,,,,,2022-06-30 14:29:51,85674
600dd1ea271cf06201979123,ma_choice_v4_social_pilot2,600dd1ea271cf06201979123,4,Duration,0,30 minutes,50 minutes,direction,1694,,,,,2022-06-30 14:29:53,85675
600dd1ea271cf06201979123,ma_choice_v4_social_pilot2,600dd1ea271cf06201979123,4,Duration,0,50 minutes,60 minutes,direction,1391,,,,,2022-06-30 14:29:54,85676
600dd1ea271cf06201979123,ma_choice_v4_social_pilot2,600dd1ea271cf06201979123,4,Duration,1,60 minutes,80 minutes,direction,1638,,,,,2022-06-30 14:29:56,85677
610898813e48dc2864965122,ma_choice_v4_social_pilot2,610898813e48dc2864965122,6,Quality of music playing,1,Very Bad,Very Good,direction,5375,,,,,2022-06-30 14:29:56,85678
600dd1ea271cf06201979123,ma_choice_v4_social_pilot2,600dd1ea271cf06201979123,4,Duration,0,80 minutes,90 minutes,direction,1678,,,,,2022-06-30 14:29:58,85679
610898813e48dc2864965122,ma_choice_v4_social_pilot2,610898813e48dc2864965122,6,Quality of music playing,1,Very Bad,Bad,direction,2653,,,,,2022-06-30 14:29:59,85680
600dd1ea271cf06201979123,ma_choice_v4_social_pilot2,600dd1ea271cf06201979123,5,Amount of food present,1,None,A Lot,direction,1764,,,,,2022-06-30 14:30:01,85681
610898813e48dc2864965122,ma_choice_v4_social_pilot2,610898813e48dc2864965122,6,Quality of music playing,1,Bad,Moderate,direction,2902,,,,,2022-06-30 14:30:02,85682
600dd1ea271cf06201979123,ma_choice_v4_social_pilot2,600dd1ea271cf06201979123,5,Amount of food present,1,None,A Little,direction,1658,,,,,2022-06-30 14:30:02,85683
6277f8b4e9145fb3dd34debd,ma_choice_v4_social_pilot2,6277f8b4e9145fb3dd34debd,0,Amount of food present,1,None,A Lot,direction,23393,,,,,2022-06-30 14:30:04,85684
600dd1ea271cf06201979123,ma_choice_v4_social_pilot2,600dd1ea271cf06201979123,5,Amount of food present,1,A Little,A Moderate Amount,direction,1901,,,,,2022-06-30 14:30:04,85685
600dd1ea271cf06201979123,ma_choice_v4_social_pilot2,600dd1ea271cf06201979123,5,Amount of food present,1,A Moderate Amount,A Lot,direction,2270,,,,,2022-06-30 14:30:06,85686
610898813e48dc2864965122,ma_choice_v4_social_pilot2,610898813e48dc2864965122,6,Quality of music playing,1,Moderate,Good,direction,5213,,,,,2022-06-30 14:30:07,85687
600dd1ea271cf06201979123,ma_choice_v4_social_pilot2,600dd1ea271cf06201979123,6,Quality of socializing,1,Very Bad,Very Good,direction,2253,,,,,2022-06-30 14:30:10,85688
610898813e48dc2864965122,ma_choice_v4_social_pilot2,610898813e48dc2864965122,6,Quality of music playing,1,Good,Very Good,direction,2659,,,,,2022-06-30 14:30:10,85689
600dd1ea271cf06201979123,ma_choice_v4_social_pilot2,600dd1ea271cf06201979123,6,Quality of socializing,1,Very Bad,Bad,direction,2883,,,,,2022-06-30 14:30:13,85690
629e3f2e7aa7065ffef94278,ma_choice_v4_social_pilot2,629e3f2e7aa7065ffef94278,0,Number of other people present,1,3 people,12 people,direction,18199,,,,,2022-06-30 14:30:13,85691
600dd1ea271cf06201979123,ma_choice_v4_social_pilot2,600dd1ea271cf06201979123,6,Quality of socializing,1,Bad,Moderate,direction,1435,,,,,2022-06-30 14:30:14,85692
600dd1ea271cf06201979123,ma_choice_v4_social_pilot2,600dd1ea271cf06201979123,6,Quality of socializing,1,Moderate,Good,direction,2179,,,,,2022-06-30 14:30:16,85693
600dd1ea271cf06201979123,ma_choice_v4_social_pilot2,600dd1ea271cf06201979123,6,Quality of socializing,1,Good,Very Good,direction,2089,,,,,2022-06-30 14:30:18,85694
629e3f2e7aa7065ffef94278,ma_choice_v4_social_pilot2,629e3f2e7aa7065ffef94278,0,Number of other people present,1,3 people,5 people,direction,6404,,,,,2022-06-30 14:30:19,85695
629e3f2e7aa7065ffef94278,ma_choice_v4_social_pilot2,629e3f2e7aa7065ffef94278,0,Number of other people present,1,5 people,8 people,direction,7541,,,,,2022-06-30 14:30:27,85696
5700616b8a49c7000d0c73ad,ma_choice_v4_social_pilot2,5700616b8a49c7000d0c73ad,0,Duration,0,30 minutes,90 minutes,direction,23080,,,,,2022-06-30 14:30:27,85697
5700616b8a49c7000d0c73ad,ma_choice_v4_social_pilot2,5700616b8a49c7000d0c73ad,0,Duration,1,30 minutes,50 minutes,direction,4839,,,,,2022-06-30 14:30:32,85698
5fc24a91ff661a07d0fd22be,ma_choice_v4_social_pilot2,5fc24a91ff661a07d0fd22be,0,Duration,1,30 minutes,90 minutes,direction,10191,,,,,2022-06-30 14:30:32,85699
629e3f2e7aa7065ffef94278,ma_choice_v4_social_pilot2,629e3f2e7aa7065ffef94278,0,Number of other people present,1,8 people,10 people,direction,6309,,,,,2022-06-30 14:30:33,85700
5700616b8a49c7000d0c73ad,ma_choice_v4_social_pilot2,5700616b8a49c7000d0c73ad,0,Duration,1,50 minutes,60 minutes,direction,2652,,,,,2022-06-30 14:30:35,85701
5700616b8a49c7000d0c73ad,ma_choice_v4_social_pilot2,5700616b8a49c7000d0c73ad,0,Duration,0,60 minutes,80 minutes,direction,2496,,,,,2022-06-30 14:30:37,85702
629e3f2e7aa7065ffef94278,ma_choice_v4_social_pilot2,629e3f2e7aa7065ffef94278,0,Number of other people present,0,10 people,12 people,direction,4236,,,,,2022-06-30 14:30:37,85703
5fc24a91ff661a07d0fd22be,ma_choice_v4_social_pilot2,5fc24a91ff661a07d0fd22be,0,Duration,1,30 minutes,50 minutes,direction,7253,,,,,2022-06-30 14:30:40,85704
5700616b8a49c7000d0c73ad,ma_choice_v4_social_pilot2,5700616b8a49c7000d0c73ad,0,Duration,0,80 minutes,90 minutes,direction,2472,,,,,2022-06-30 14:30:40,85705
6277f8b4e9145fb3dd34debd,ma_choice_v4_social_pilot2,6277f8b4e9145fb3dd34debd,0,Amount of food present,1,None,A Little,direction,36318,,,,,2022-06-30 14:30:40,85706
629e3f2e7aa7065ffef94278,ma_choice_v4_social_pilot2,629e3f2e7aa7065ffef94278,1,Quality of socializing,1,Very Bad,Very Good,direction,4319,,,,,2022-06-30 14:30:43,85707
5fc24a91ff661a07d0fd22be,ma_choice_v4_social_pilot2,5fc24a91ff661a07d0fd22be,0,Duration,1,50 minutes,60 minutes,direction,4485,,,,,2022-06-30 14:30:44,85708
629e3f2e7aa7065ffef94278,ma_choice_v4_social_pilot2,629e3f2e7aa7065ffef94278,1,Quality of socializing,1,Very Bad,Bad,direction,3565,,,,,2022-06-30 14:30:47,85709
5fc24a91ff661a07d0fd22be,ma_choice_v4_social_pilot2,5fc24a91ff661a07d0fd22be,0,Duration,1,60 minutes,80 minutes,direction,3110,,,,,2022-06-30 14:30:47,85710
5700616b8a49c7000d0c73ad,ma_choice_v4_social_pilot2,5700616b8a49c7000d0c73ad,1,Amount of alcohol present,0,None,A Lot,direction,6061,,,,,2022-06-30 14:30:48,85711
5fc24a91ff661a07d0fd22be,ma_choice_v4_social_pilot2,5fc24a91ff661a07d0fd22be,0,Duration,1,80 minutes,90 minutes,direction,3342,,,,,2022-06-30 14:30:50,85712
629e3f2e7aa7065ffef94278,ma_choice_v4_social_pilot2,629e3f2e7aa7065ffef94278,1,Quality of socializing,1,Bad,Moderate,direction,3757,,,,,2022-06-30 14:30:51,85713
629e3f2e7aa7065ffef94278,ma_choice_v4_social_pilot2,629e3f2e7aa7065ffef94278,1,Quality of socializing,1,Moderate,Good,direction,2053,,,,,2022-06-30 14:30:53,85714
5700616b8a49c7000d0c73ad,ma_choice_v4_social_pilot2,5700616b8a49c7000d0c73ad,1,Amount of alcohol present,1,None,A Little,direction,5583,,,,,2022-06-30 14:30:53,85715
629e3f2e7aa7065ffef94278,ma_choice_v4_social_pilot2,629e3f2e7aa7065ffef94278,1,Quality of socializing,1,Good,Very Good,direction,2565,,,,,2022-06-30 14:30:55,85716
6277f8b4e9145fb3dd34debd,ma_choice_v4_social_pilot2,6277f8b4e9145fb3dd34debd,0,Amount of food present,1,A Little,A Moderate Amount,direction,16701,,,,,2022-06-30 14:30:56,85717
5700616b8a49c7000d0c73ad,ma_choice_v4_social_pilot2,5700616b8a49c7000d0c73ad,1,Amount of alcohol present,1,A Little,A Moderate Amount,direction,3841,,,,,2022-06-30 14:30:57,85718
629e3f2e7aa7065ffef94278,ma_choice_v4_social_pilot2,629e3f2e7aa7065ffef94278,2,Quality of music playing,1,Very Bad,Very Good,direction,2047,,,,,2022-06-30 14:30:59,85719
5700616b8a49c7000d0c73ad,ma_choice_v4_social_pilot2,5700616b8a49c7000d0c73ad,1,Amount of alcohol present,0,A Moderate Amount,A Lot,direction,2661,,,,,2022-06-30 14:31:00,85720
5fc24a91ff661a07d0fd22be,ma_choice_v4_social_pilot2,5fc24a91ff661a07d0fd22be,1,Number of other people present,0,3 people,12 people,direction,8663,,,,,2022-06-30 14:31:01,85721
607a7c3112ff1d9371319ed6,ma_choice_v4_social_pilot2,607a7c3112ff1d9371319ed6,0,Distance from home,1,,,ew_att_rating,24244,,,,,2022-06-30 14:31:02,85722
607a7c3112ff1d9371319ed6,ma_choice_v4_social_pilot2,607a7c3112ff1d9371319ed6,0,Quality of music playing,1,,,ew_att_rating,24244,,,,,2022-06-30 14:31:02,85723
607a7c3112ff1d9371319ed6,ma_choice_v4_social_pilot2,607a7c3112ff1d9371319ed6,0,Quality of socializing,1,,,ew_att_rating,24244,,,,,2022-06-30 14:31:02,85724
607a7c3112ff1d9371319ed6,ma_choice_v4_social_pilot2,607a7c3112ff1d9371319ed6,0,Amount of food present,1,,,ew_att_rating,24244,,,,,2022-06-30 14:31:02,85725
607a7c3112ff1d9371319ed6,ma_choice_v4_social_pilot2,607a7c3112ff1d9371319ed6,0,Duration,1,,,ew_att_rating,24244,,,,,2022-06-30 14:31:02,85726
607a7c3112ff1d9371319ed6,ma_choice_v4_social_pilot2,607a7c3112ff1d9371319ed6,0,Number of other people present,1,,,ew_att_rating,24244,,,,,2022-06-30 14:31:02,85727
607a7c3112ff1d9371319ed6,ma_choice_v4_social_pilot2,607a7c3112ff1d9371319ed6,0,Amount of alcohol present,1,,,ew_att_rating,24244,,,,,2022-06-30 14:31:02,85728
629e3f2e7aa7065ffef94278,ma_choice_v4_social_pilot2,629e3f2e7aa7065ffef94278,2,Quality of music playing,1,Very Bad,Bad,direction,2965,,,,,2022-06-30 14:31:02,85729
5fc24a91ff661a07d0fd22be,ma_choice_v4_social_pilot2,5fc24a91ff661a07d0fd22be,1,Number of other people present,0,3 people,5 people,direction,2614,,,,,2022-06-30 14:31:04,85730
629e3f2e7aa7065ffef94278,ma_choice_v4_social_pilot2,629e3f2e7aa7065ffef94278,2,Quality of music playing,1,Bad,Moderate,direction,2533,,,,,2022-06-30 14:31:04,85731
5700616b8a49c7000d0c73ad,ma_choice_v4_social_pilot2,5700616b8a49c7000d0c73ad,2,Number of other people present,1,3 people,12 people,direction,4040,,,,,2022-06-30 14:31:05,85732
5fc24a91ff661a07d0fd22be,ma_choice_v4_social_pilot2,5fc24a91ff661a07d0fd22be,1,Number of other people present,0,5 people,8 people,direction,2733,,,,,2022-06-30 14:31:06,85733
5700616b8a49c7000d0c73ad,ma_choice_v4_social_pilot2,5700616b8a49c7000d0c73ad,2,Number of other people present,1,3 people,5 people,direction,2767,,,,,2022-06-30 14:31:08,85734
629e3f2e7aa7065ffef94278,ma_choice_v4_social_pilot2,629e3f2e7aa7065ffef94278,2,Quality of music playing,1,Moderate,Good,direction,3549,,,,,2022-06-30 14:31:08,85735
5fc24a91ff661a07d0fd22be,ma_choice_v4_social_pilot2,5fc24a91ff661a07d0fd22be,1,Number of other people present,0,8 people,10 people,direction,2726,,,,,2022-06-30 14:31:09,85736
5700616b8a49c7000d0c73ad,ma_choice_v4_social_pilot2,5700616b8a49c7000d0c73ad,2,Number of other people present,1,5 people,8 people,direction,1952,,,,,2022-06-30 14:31:10,85737
629e3f2e7aa7065ffef94278,ma_choice_v4_social_pilot2,629e3f2e7aa7065ffef94278,2,Quality of music playing,1,Good,Very Good,direction,2261,,,,,2022-06-30 14:31:10,85738
6277f8b4e9145fb3dd34debd,ma_choice_v4_social_pilot2,6277f8b4e9145fb3dd34debd,0,Amount of food present,0,A Moderate Amount,A Lot,direction,14094,,,,,2022-06-30 14:31:10,85739
629b4d940b984723e59c13ce,ma_choice_v4_social_pilot2,629b4d940b984723e59c13ce,0,Amount of food present,1,None,A Lot,direction,8242,,,,,2022-06-30 14:31:11,85740
5700616b8a49c7000d0c73ad,ma_choice_v4_social_pilot2,5700616b8a49c7000d0c73ad,2,Number of other people present,1,8 people,10 people,direction,1871,,,,,2022-06-30 14:31:11,85741
5fc24a91ff661a07d0fd22be,ma_choice_v4_social_pilot2,5fc24a91ff661a07d0fd22be,1,Number of other people present,0,10 people,12 people,direction,2862,,,,,2022-06-30 14:31:12,85742
5700616b8a49c7000d0c73ad,ma_choice_v4_social_pilot2,5700616b8a49c7000d0c73ad,2,Number of other people present,1,10 people,12 people,direction,1667,,,,,2022-06-30 14:31:13,85743
629b4d940b984723e59c13ce,ma_choice_v4_social_pilot2,629b4d940b984723e59c13ce,0,Amount of food present,1,None,A Little,direction,4002,,,,,2022-06-30 14:31:15,85744
5fc24a91ff661a07d0fd22be,ma_choice_v4_social_pilot2,5fc24a91ff661a07d0fd22be,2,Amount of alcohol present,1,None,A Lot,direction,3335,,,,,2022-06-30 14:31:17,85745
5700616b8a49c7000d0c73ad,ma_choice_v4_social_pilot2,5700616b8a49c7000d0c73ad,3,Quality of socializing,1,Very Bad,Very Good,direction,2591,,,,,2022-06-30 14:31:17,85746
629b4d940b984723e59c13ce,ma_choice_v4_social_pilot2,629b4d940b984723e59c13ce,0,Amount of food present,1,A Little,A Moderate Amount,direction,2197,,,,,2022-06-30 14:31:17,85747
5fc24a91ff661a07d0fd22be,ma_choice_v4_social_pilot2,5fc24a91ff661a07d0fd22be,2,Amount of alcohol present,1,None,A Little,direction,2134,,,,,2022-06-30 14:31:19,85748
607a7c3112ff1d9371319ed6,ma_choice_v4_social_pilot2,607a7c3112ff1d9371319ed6,1,Amount of alcohol present,50,,,wad_att_rating,10325,,,,,2022-06-30 14:31:19,85749
5700616b8a49c7000d0c73ad,ma_choice_v4_social_pilot2,5700616b8a49c7000d0c73ad,3,Quality of socializing,0,Very Bad,Bad,direction,2394,,,,,2022-06-30 14:31:19,85750
629e3f2e7aa7065ffef94278,ma_choice_v4_social_pilot2,629e3f2e7aa7065ffef94278,3,Distance from home,0,5 min away,60 min away,direction,8119,,,,,2022-06-30 14:31:20,85751
5700616b8a49c7000d0c73ad,ma_choice_v4_social_pilot2,5700616b8a49c7000d0c73ad,3,Quality of socializing,1,Bad,Moderate,direction,1865,,,,,2022-06-30 14:31:21,85752
629e3f2e7aa7065ffef94278,ma_choice_v4_social_pilot2,629e3f2e7aa7065ffef94278,3,Distance from home,1,5 min away,20 min away,direction,1861,,,,,2022-06-30 14:31:21,85753
5fc24a91ff661a07d0fd22be,ma_choice_v4_social_pilot2,5fc24a91ff661a07d0fd22be,2,Amount of alcohol present,1,A Little,A Moderate Amount,direction,3110,,,,,2022-06-30 14:31:22,85754
629b4d940b984723e59c13ce,ma_choice_v4_social_pilot2,629b4d940b984723e59c13ce,0,Amount of food present,1,A Moderate Amount,A Lot,direction,5185,,,,,2022-06-30 14:31:23,85755
607a7c3112ff1d9371319ed6,ma_choice_v4_social_pilot2,607a7c3112ff1d9371319ed6,2,Amount of food present,36,,,wad_att_rating,5019,,,,,2022-06-30 14:31:23,85756
629e3f2e7aa7065ffef94278,ma_choice_v4_social_pilot2,629e3f2e7aa7065ffef94278,3,Distance from home,0,20 min away,35 min away,direction,2822,,,,,2022-06-30 14:31:24,85757
5fc24a91ff661a07d0fd22be,ma_choice_v4_social_pilot2,5fc24a91ff661a07d0fd22be,2,Amount of alcohol present,1,A Moderate Amount,A Lot,direction,3269,,,,,2022-06-30 14:31:25,85758
607a7c3112ff1d9371319ed6,ma_choice_v4_social_pilot2,607a7c3112ff1d9371319ed6,4,Duration,51,,,wad_att_rating,2547,,,,,2022-06-30 14:31:26,85759
629e3f2e7aa7065ffef94278,ma_choice_v4_social_pilot2,629e3f2e7aa7065ffef94278,3,Distance from home,0,35 min away,45 min away,direction,1949,,,,,2022-06-30 14:31:26,85760
6277f8b4e9145fb3dd34debd,ma_choice_v4_social_pilot2,6277f8b4e9145fb3dd34debd,1,Distance from home,0,5 min away,60 min away,direction,12760,,,,,2022-06-30 14:31:27,85761
5700616b8a49c7000d0c73ad,ma_choice_v4_social_pilot2,5700616b8a49c7000d0c73ad,3,Quality of socializing,1,Moderate,Good,direction,6406,,,,,2022-06-30 14:31:28,85762
629b4d940b984723e59c13ce,ma_choice_v4_social_pilot2,629b4d940b984723e59c13ce,1,Number of other people present,0,3 people,12 people,direction,4014,,,,,2022-06-30 14:31:28,85763
629e3f2e7aa7065ffef94278,ma_choice_v4_social_pilot2,629e3f2e7aa7065ffef94278,3,Distance from home,0,45 min away,60 min away,direction,2749,,,,,2022-06-30 14:31:29,85764
5700616b8a49c7000d0c73ad,ma_choice_v4_social_pilot2,5700616b8a49c7000d0c73ad,3,Quality of socializing,1,Good,Very Good,direction,1780,,,,,2022-06-30 14:31:29,85765
6237bbb045247e87198d491d,ma_choice_v4_social_pilot2,6237bbb045247e87198d491d,0,Quality of socializing,1,,,ew_att_rating,20110,,,,,2022-06-30 14:31:30,85766
6237bbb045247e87198d491d,ma_choice_v4_social_pilot2,6237bbb045247e87198d491d,0,Distance from home,1,,,ew_att_rating,20110,,,,,2022-06-30 14:31:30,85767
6237bbb045247e87198d491d,ma_choice_v4_social_pilot2,6237bbb045247e87198d491d,0,Amount of food present,1,,,ew_att_rating,20110,,,,,2022-06-30 14:31:30,85768
5fc24a91ff661a07d0fd22be,ma_choice_v4_social_pilot2,5fc24a91ff661a07d0fd22be,3,Distance from home,0,5 min away,60 min away,direction,3407,,,,,2022-06-30 14:31:30,85769
607a7c3112ff1d9371319ed6,ma_choice_v4_social_pilot2,607a7c3112ff1d9371319ed6,6,Quality of socializing,88,,,wad_att_rating,5244,,,,,2022-06-30 14:31:31,85770
629e3f2e7aa7065ffef94278,ma_choice_v4_social_pilot2,629e3f2e7aa7065ffef94278,4,Amount of alcohol present,1,None,A Lot,direction,1735,,,,,2022-06-30 14:31:32,85771
629b4d940b984723e59c13ce,ma_choice_v4_social_pilot2,629b4d940b984723e59c13ce,1,Number of other people present,1,3 people,5 people,direction,4589,,,,,2022-06-30 14:31:32,85772
5fc24a91ff661a07d0fd22be,ma_choice_v4_social_pilot2,5fc24a91ff661a07d0fd22be,3,Distance from home,0,5 min away,20 min away,direction,2526,,,,,2022-06-30 14:31:32,85773
5700616b8a49c7000d0c73ad,ma_choice_v4_social_pilot2,5700616b8a49c7000d0c73ad,4,Amount of food present,1,None,A Lot,direction,2179,,,,,2022-06-30 14:31:33,85774
629e3f2e7aa7065ffef94278,ma_choice_v4_social_pilot2,629e3f2e7aa7065ffef94278,4,Amount of alcohol present,1,None,A Little,direction,1733,,,,,2022-06-30 14:31:34,85775
5fc24a91ff661a07d0fd22be,ma_choice_v4_social_pilot2,5fc24a91ff661a07d0fd22be,3,Distance from home,0,20 min away,35 min away,direction,1950,,,,,2022-06-30 14:31:34,85776
5700616b8a49c7000d0c73ad,ma_choice_v4_social_pilot2,5700616b8a49c7000d0c73ad,4,Amount of food present,1,None,A Little,direction,2352,,,,,2022-06-30 14:31:35,85777
629b4d940b984723e59c13ce,ma_choice_v4_social_pilot2,629b4d940b984723e59c13ce,1,Number of other people present,1,5 people,8 people,direction,3100,,,,,2022-06-30 14:31:35,85778
607a7c3112ff1d9371319ed6,ma_choice_v4_social_pilot2,607a7c3112ff1d9371319ed6,5,Quality of music playing,38,,,wad_att_rating,3868,,,,,2022-06-30 14:31:36,85779
629e3f2e7aa7065ffef94278,ma_choice_v4_social_pilot2,629e3f2e7aa7065ffef94278,4,Amount of alcohol present,1,A Little,A Moderate Amount,direction,2158,,,,,2022-06-30 14:31:36,85780
5fc24a91ff661a07d0fd22be,ma_choice_v4_social_pilot2,5fc24a91ff661a07d0fd22be,3,Distance from home,0,35 min away,45 min away,direction,1678,,,,,2022-06-30 14:31:36,85781
5700616b8a49c7000d0c73ad,ma_choice_v4_social_pilot2,5700616b8a49c7000d0c73ad,4,Amount of food present,1,A Little,A Moderate Amount,direction,2167,,,,,2022-06-30 14:31:37,85782
607a7c3112ff1d9371319ed6,ma_choice_v4_social_pilot2,607a7c3112ff1d9371319ed6,0,Distance from home,49,,,wad_att_rating,2203,,,,,2022-06-30 14:31:37,85783
6237bbb045247e87198d491d,ma_choice_v4_social_pilot2,6237bbb045247e87198d491d,5,Quality of music playing,4,,,wad_att_rating,4917,,,,,2022-06-30 14:31:38,85784
5fc24a91ff661a07d0fd22be,ma_choice_v4_social_pilot2,5fc24a91ff661a07d0fd22be,3,Distance from home,0,45 min away,60 min away,direction,1742,,,,,2022-06-30 14:31:38,85785
629b4d940b984723e59c13ce,ma_choice_v4_social_pilot2,629b4d940b984723e59c13ce,1,Number of other people present,1,8 people,10 people,direction,2452,,,,,2022-06-30 14:31:38,85786
629e3f2e7aa7065ffef94278,ma_choice_v4_social_pilot2,629e3f2e7aa7065ffef94278,4,Amount of alcohol present,1,A Moderate Amount,A Lot,direction,2188,,,,,2022-06-30 14:31:38,85787
5700616b8a49c7000d0c73ad,ma_choice_v4_social_pilot2,5700616b8a49c7000d0c73ad,4,Amount of food present,1,A Moderate Amount,A Lot,direction,1876,,,,,2022-06-30 14:31:39,85788
607a7c3112ff1d9371319ed6,ma_choice_v4_social_pilot2,607a7c3112ff1d9371319ed6,3,Number of other people present,50,,,wad_att_rating,2017,,,,,2022-06-30 14:31:39,85789
629b4d940b984723e59c13ce,ma_choice_v4_social_pilot2,629b4d940b984723e59c13ce,1,Number of other people present,1,10 people,12 people,direction,2486,,,,,2022-06-30 14:31:40,85790
6277f8b4e9145fb3dd34debd,ma_choice_v4_social_pilot2,6277f8b4e9145fb3dd34debd,1,Distance from home,0,5 min away,20 min away,direction,13084,,,,,2022-06-30 14:31:40,85791
629e3f2e7aa7065ffef94278,ma_choice_v4_social_pilot2,629e3f2e7aa7065ffef94278,5,Amount of food present,1,None,A Lot,direction,1814,,,,,2022-06-30 14:31:41,85792
6237bbb045247e87198d491d,ma_choice_v4_social_pilot2,6237bbb045247e87198d491d,3,Number of other people present,50,,,wad_att_rating,3765,,,,,2022-06-30 14:31:42,85793
5fc24a91ff661a07d0fd22be,ma_choice_v4_social_pilot2,5fc24a91ff661a07d0fd22be,4,Quality of music playing,1,Very Bad,Very Good,direction,3207,,,,,2022-06-30 14:31:42,85794
5700616b8a49c7000d0c73ad,ma_choice_v4_social_pilot2,5700616b8a49c7000d0c73ad,5,Distance from home,0,5 min away,60 min away,direction,2377,,,,,2022-06-30 14:31:43,85795
629e3f2e7aa7065ffef94278,ma_choice_v4_social_pilot2,629e3f2e7aa7065ffef94278,5,Amount of food present,1,None,A Little,direction,1445,,,,,2022-06-30 14:31:43,85796
6237bbb045247e87198d491d,ma_choice_v4_social_pilot2,6237bbb045247e87198d491d,1,Amount of alcohol present,0,,,wad_att_rating,2214,,,,,2022-06-30 14:31:44,85797
5700616b8a49c7000d0c73ad,ma_choice_v4_social_pilot2,5700616b8a49c7000d0c73ad,5,Distance from home,0,5 min away,20 min away,direction,1827,,,,,2022-06-30 14:31:44,85798
629e3f2e7aa7065ffef94278,ma_choice_v4_social_pilot2,629e3f2e7aa7065ffef94278,5,Amount of food present,1,A Little,A Moderate Amount,direction,1982,,,,,2022-06-30 14:31:45,85799
6277f8b4e9145fb3dd34debd,ma_choice_v4_social_pilot2,6277f8b4e9145fb3dd34debd,1,Distance from home,0,20 min away,35 min away,direction,4431,,,,,2022-06-30 14:31:45,85800
5fc24a91ff661a07d0fd22be,ma_choice_v4_social_pilot2,5fc24a91ff661a07d0fd22be,4,Quality of music playing,1,Very Bad,Bad,direction,2758,,,,,2022-06-30 14:31:45,85801
5700616b8a49c7000d0c73ad,ma_choice_v4_social_pilot2,5700616b8a49c7000d0c73ad,5,Distance from home,0,20 min away,35 min away,direction,1601,,,,,2022-06-30 14:31:46,85802
629b4d940b984723e59c13ce,ma_choice_v4_social_pilot2,629b4d940b984723e59c13ce,2,Distance from home,1,5 min away,60 min away,direction,5834,,,,,2022-06-30 14:31:48,85803
5700616b8a49c7000d0c73ad,ma_choice_v4_social_pilot2,5700616b8a49c7000d0c73ad,5,Distance from home,0,35 min away,45 min away,direction,1644,,,,,2022-06-30 14:31:48,85804
629e3f2e7aa7065ffef94278,ma_choice_v4_social_pilot2,629e3f2e7aa7065ffef94278,5,Amount of food present,1,A Moderate Amount,A Lot,direction,3349,,,,,2022-06-30 14:31:48,85805
5fc24a91ff661a07d0fd22be,ma_choice_v4_social_pilot2,5fc24a91ff661a07d0fd22be,4,Quality of music playing,1,Bad,Moderate,direction,3174,,,,,2022-06-30 14:31:48,85806
5700616b8a49c7000d0c73ad,ma_choice_v4_social_pilot2,5700616b8a49c7000d0c73ad,5,Distance from home,0,45 min away,60 min away,direction,1545,,,,,2022-06-30 14:31:49,85807
629b4d940b984723e59c13ce,ma_choice_v4_social_pilot2,629b4d940b984723e59c13ce,2,Distance from home,1,5 min away,20 min away,direction,2071,,,,,2022-06-30 14:31:50,85808
6277f8b4e9145fb3dd34debd,ma_choice_v4_social_pilot2,6277f8b4e9145fb3dd34debd,1,Distance from home,0,35 min away,45 min away,direction,5144,,,,,2022-06-30 14:31:50,85809
5fc24a91ff661a07d0fd22be,ma_choice_v4_social_pilot2,5fc24a91ff661a07d0fd22be,4,Quality of music playing,1,Moderate,Good,direction,1910,,,,,2022-06-30 14:31:50,85810
629e3f2e7aa7065ffef94278,ma_choice_v4_social_pilot2,629e3f2e7aa7065ffef94278,6,Duration,0,30 minutes,90 minutes,direction,2111,,,,,2022-06-30 14:31:51,85811
607a7c3112ff1d9371319ed6,ma_choice_v4_social_pilot2,607a7c3112ff1d9371319ed6,0,Quality of socializing,1,,,lex_att_rating,7646,,,,,2022-06-30 14:31:52,85812
629b4d940b984723e59c13ce,ma_choice_v4_social_pilot2,629b4d940b984723e59c13ce,2,Distance from home,1,20 min away,35 min away,direction,2446,,,,,2022-06-30 14:31:52,85813
5700616b8a49c7000d0c73ad,ma_choice_v4_social_pilot2,5700616b8a49c7000d0c73ad,6,Quality of music playing,1,Very Bad,Very Good,direction,2056,,,,,2022-06-30 14:31:52,85814
5fc24a91ff661a07d0fd22be,ma_choice_v4_social_pilot2,5fc24a91ff661a07d0fd22be,4,Quality of music playing,1,Good,Very Good,direction,2285,,,,,2022-06-30 14:31:52,85815
629e3f2e7aa7065ffef94278,ma_choice_v4_social_pilot2,629e3f2e7aa7065ffef94278,6,Duration,1,30 minutes,50 minutes,direction,2749,,,,,2022-06-30 14:31:54,85816
6237bbb045247e87198d491d,ma_choice_v4_social_pilot2,6237bbb045247e87198d491d,2,Amount of food present,76,,,wad_att_rating,10726,,,,,2022-06-30 14:31:55,85817
629b4d940b984723e59c13ce,ma_choice_v4_social_pilot2,629b4d940b984723e59c13ce,2,Distance from home,1,35 min away,45 min away,direction,2350,,,,,2022-06-30 14:31:55,85818
5700616b8a49c7000d0c73ad,ma_choice_v4_social_pilot2,5700616b8a49c7000d0c73ad,6,Quality of music playing,1,Very Bad,Bad,direction,2703,,,,,2022-06-30 14:31:55,85819
5fc24a91ff661a07d0fd22be,ma_choice_v4_social_pilot2,5fc24a91ff661a07d0fd22be,5,Amount of food present,1,None,A Lot,direction,2423,,,,,2022-06-30 14:31:56,85820
6277f8b4e9145fb3dd34debd,ma_choice_v4_social_pilot2,6277f8b4e9145fb3dd34debd,1,Distance from home,0,45 min away,60 min away,direction,6184,,,,,2022-06-30 14:31:56,85821
5700616b8a49c7000d0c73ad,ma_choice_v4_social_pilot2,5700616b8a49c7000d0c73ad,6,Quality of music playing,1,Bad,Moderate,direction,1463,,,,,2022-06-30 14:31:57,85822
629b4d940b984723e59c13ce,ma_choice_v4_social_pilot2,629b4d940b984723e59c13ce,2,Distance from home,1,45 min away,60 min away,direction,2314,,,,,2022-06-30 14:31:57,85823
5fc24a91ff661a07d0fd22be,ma_choice_v4_social_pilot2,5fc24a91ff661a07d0fd22be,5,Amount of food present,1,None,A Little,direction,1758,,,,,2022-06-30 14:31:58,85824
629e3f2e7aa7065ffef94278,ma_choice_v4_social_pilot2,629e3f2e7aa7065ffef94278,6,Duration,1,50 minutes,60 minutes,direction,4069,,,,,2022-06-30 14:31:58,85825
5700616b8a49c7000d0c73ad,ma_choice_v4_social_pilot2,5700616b8a49c7000d0c73ad,6,Quality of music playing,1,Moderate,Good,direction,1722,,,,,2022-06-30 14:31:58,85826
6237bbb045247e87198d491d,ma_choice_v4_social_pilot2,6237bbb045247e87198d491d,4,Duration,44,,,wad_att_rating,4718,,,,,2022-06-30 14:31:59,85827
5700616b8a49c7000d0c73ad,ma_choice_v4_social_pilot2,5700616b8a49c7000d0c73ad,6,Quality of music playing,1,Good,Very Good,direction,1455,,,,,2022-06-30 14:32:00,85828
629e3f2e7aa7065ffef94278,ma_choice_v4_social_pilot2,629e3f2e7aa7065ffef94278,6,Duration,0,60 minutes,80 minutes,direction,1581,,,,,2022-06-30 14:32:00,85829
5fc24a91ff661a07d0fd22be,ma_choice_v4_social_pilot2,5fc24a91ff661a07d0fd22be,5,Amount of food present,1,A Little,A Moderate Amount,direction,1990,,,,,2022-06-30 14:32:00,85830
629b4d940b984723e59c13ce,ma_choice_v4_social_pilot2,629b4d940b984723e59c13ce,3,Quality of music playing,1,Very Bad,Very Good,direction,2530,,,,,2022-06-30 14:32:01,85831
629e3f2e7aa7065ffef94278,ma_choice_v4_social_pilot2,629e3f2e7aa7065ffef94278,6,Duration,0,80 minutes,90 minutes,direction,1709,,,,,2022-06-30 14:32:02,85832
5fc24a91ff661a07d0fd22be,ma_choice_v4_social_pilot2,5fc24a91ff661a07d0fd22be,5,Amount of food present,1,A Moderate Amount,A Lot,direction,2430,,,,,2022-06-30 14:32:02,85833
6237bbb045247e87198d491d,ma_choice_v4_social_pilot2,6237bbb045247e87198d491d,6,Quality of socializing,96,,,wad_att_rating,3199,,,,,2022-06-30 14:32:02,85834
629b4d940b984723e59c13ce,ma_choice_v4_social_pilot2,629b4d940b984723e59c13ce,3,Quality of music playing,1,Very Bad,Bad,direction,2814,,,,,2022-06-30 14:32:04,85835
6277f8b4e9145fb3dd34debd,ma_choice_v4_social_pilot2,6277f8b4e9145fb3dd34debd,2,Quality of music playing,1,Very Bad,Very Good,direction,6661,,,,,2022-06-30 14:32:05,85836
5fc24a91ff661a07d0fd22be,ma_choice_v4_social_pilot2,5fc24a91ff661a07d0fd22be,6,Quality of socializing,1,Very Bad,Very Good,direction,1806,,,,,2022-06-30 14:32:05,85837
629b4d940b984723e59c13ce,ma_choice_v4_social_pilot2,629b4d940b984723e59c13ce,3,Quality of music playing,1,Bad,Moderate,direction,2556,,,,,2022-06-30 14:32:06,85838
6237bbb045247e87198d491d,ma_choice_v4_social_pilot2,6237bbb045247e87198d491d,0,Distance from home,63,,,wad_att_rating,4133,,,,,2022-06-30 14:32:07,85839
5fc24a91ff661a07d0fd22be,ma_choice_v4_social_pilot2,5fc24a91ff661a07d0fd22be,6,Quality of socializing,1,Very Bad,Bad,direction,2310,,,,,2022-06-30 14:32:08,85840
629b4d940b984723e59c13ce,ma_choice_v4_social_pilot2,629b4d940b984723e59c13ce,3,Quality of music playing,1,Moderate,Good,direction,2870,,,,,2022-06-30 14:32:09,85841
6277f8b4e9145fb3dd34debd,ma_choice_v4_social_pilot2,6277f8b4e9145fb3dd34debd,2,Quality of music playing,1,Very Bad,Bad,direction,5226,,,,,2022-06-30 14:32:10,85842
5fc24a91ff661a07d0fd22be,ma_choice_v4_social_pilot2,5fc24a91ff661a07d0fd22be,6,Quality of socializing,1,Bad,Moderate,direction,2822,,,,,2022-06-30 14:32:11,85843
629b4d940b984723e59c13ce,ma_choice_v4_social_pilot2,629b4d940b984723e59c13ce,3,Quality of music playing,1,Good,Very Good,direction,2336,,,,,2022-06-30 14:32:11,85844
5fc24a91ff661a07d0fd22be,ma_choice_v4_social_pilot2,5fc24a91ff661a07d0fd22be,6,Quality of socializing,1,Moderate,Good,direction,2198,,,,,2022-06-30 14:32:13,85845
5fc24a91ff661a07d0fd22be,ma_choice_v4_social_pilot2,5fc24a91ff661a07d0fd22be,6,Quality of socializing,1,Good,Very Good,direction,1678,,,,,2022-06-30 14:32:14,85846
6277f8b4e9145fb3dd34debd,ma_choice_v4_social_pilot2,6277f8b4e9145fb3dd34debd,2,Quality of music playing,1,Bad,Moderate,direction,4030,,,,,2022-06-30 14:32:14,85847
629b4d940b984723e59c13ce,ma_choice_v4_social_pilot2,629b4d940b984723e59c13ce,4,Quality of socializing,1,Very Bad,Very Good,direction,2415,,,,,2022-06-30 14:32:15,85848
6237bbb045247e87198d491d,ma_choice_v4_social_pilot2,6237bbb045247e87198d491d,0,Quality of socializing,1,,,lex_att_rating,4638,,,,,2022-06-30 14:32:17,85849
629b4d940b984723e59c13ce,ma_choice_v4_social_pilot2,629b4d940b984723e59c13ce,4,Quality of socializing,1,Very Bad,Bad,direction,2295,,,,,2022-06-30 14:32:17,85850
629b4d940b984723e59c13ce,ma_choice_v4_social_pilot2,629b4d940b984723e59c13ce,4,Quality of socializing,1,Bad,Moderate,direction,2395,,,,,2022-06-30 14:32:20,85851
629b4d940b984723e59c13ce,ma_choice_v4_social_pilot2,629b4d940b984723e59c13ce,4,Quality of socializing,1,Moderate,Good,direction,2101,,,,,2022-06-30 14:32:22,85852
6277f8b4e9145fb3dd34debd,ma_choice_v4_social_pilot2,6277f8b4e9145fb3dd34debd,2,Quality of music playing,0,Moderate,Good,direction,7722,,,,,2022-06-30 14:32:22,85853
629b4d940b984723e59c13ce,ma_choice_v4_social_pilot2,629b4d940b984723e59c13ce,4,Quality of socializing,1,Good,Very Good,direction,2386,,,,,2022-06-30 14:32:24,85854
6277f8b4e9145fb3dd34debd,ma_choice_v4_social_pilot2,6277f8b4e9145fb3dd34debd,2,Quality of music playing,0,Good,Very Good,direction,4803,,,,,2022-06-30 14:32:27,85855
629b4d940b984723e59c13ce,ma_choice_v4_social_pilot2,629b4d940b984723e59c13ce,5,Amount of alcohol present,0,None,A Lot,direction,4395,,,,,2022-06-30 14:32:30,85856
629b4d940b984723e59c13ce,ma_choice_v4_social_pilot2,629b4d940b984723e59c13ce,5,Amount of alcohol present,0,None,A Little,direction,3482,,,,,2022-06-30 14:32:33,85857
6277f8b4e9145fb3dd34debd,ma_choice_v4_social_pilot2,6277f8b4e9145fb3dd34debd,3,Quality of socializing,1,Very Bad,Very Good,direction,4330,,,,,2022-06-30 14:32:34,85858
629b4d940b984723e59c13ce,ma_choice_v4_social_pilot2,629b4d940b984723e59c13ce,5,Amount of alcohol present,0,A Little,A Moderate Amount,direction,4128,,,,,2022-06-30 14:32:37,85859
6277f8b4e9145fb3dd34debd,ma_choice_v4_social_pilot2,6277f8b4e9145fb3dd34debd,3,Quality of socializing,1,Very Bad,Bad,direction,4602,,,,,2022-06-30 14:32:38,85860
6277f8b4e9145fb3dd34debd,ma_choice_v4_social_pilot2,6277f8b4e9145fb3dd34debd,3,Quality of socializing,1,Bad,Moderate,direction,3465,,,,,2022-06-30 14:32:42,85861
629b4d940b984723e59c13ce,ma_choice_v4_social_pilot2,629b4d940b984723e59c13ce,5,Amount of alcohol present,0,A Moderate Amount,A Lot,direction,4559,,,,,2022-06-30 14:32:42,85862
6277f8b4e9145fb3dd34debd,ma_choice_v4_social_pilot2,6277f8b4e9145fb3dd34debd,3,Quality of socializing,1,Moderate,Good,direction,5323,,,,,2022-06-30 14:32:47,85863
629b4d940b984723e59c13ce,ma_choice_v4_social_pilot2,629b4d940b984723e59c13ce,6,Duration,1,30 minutes,90 minutes,direction,3346,,,,,2022-06-30 14:32:47,85864
629b4d940b984723e59c13ce,ma_choice_v4_social_pilot2,629b4d940b984723e59c13ce,6,Duration,1,30 minutes,50 minutes,direction,2152,,,,,2022-06-30 14:32:49,85865
6277f8b4e9145fb3dd34debd,ma_choice_v4_social_pilot2,6277f8b4e9145fb3dd34debd,3,Quality of socializing,1,Good,Very Good,direction,3749,,,,,2022-06-30 14:32:51,85866
629b4d940b984723e59c13ce,ma_choice_v4_social_pilot2,629b4d940b984723e59c13ce,6,Duration,1,50 minutes,60 minutes,direction,2205,,,,,2022-06-30 14:32:51,85867
629b4d940b984723e59c13ce,ma_choice_v4_social_pilot2,629b4d940b984723e59c13ce,6,Duration,1,60 minutes,80 minutes,direction,2342,,,,,2022-06-30 14:32:54,85868
629b4d940b984723e59c13ce,ma_choice_v4_social_pilot2,629b4d940b984723e59c13ce,6,Duration,1,80 minutes,90 minutes,direction,3504,,,,,2022-06-30 14:32:57,85869
6277f8b4e9145fb3dd34debd,ma_choice_v4_social_pilot2,6277f8b4e9145fb3dd34debd,4,Amount of alcohol present,0,None,A Lot,direction,6824,,,,,2022-06-30 14:32:59,85870
6277f8b4e9145fb3dd34debd,ma_choice_v4_social_pilot2,6277f8b4e9145fb3dd34debd,4,Amount of alcohol present,1,None,A Little,direction,3474,,,,,2022-06-30 14:33:03,85871
607a7c3112ff1d9371319ed6,ma_choice_v4_social_pilot2,607a7c3112ff1d9371319ed6,0,Number of other people present,1,3 people,12 people,direction,38870,,,,,2022-06-30 14:33:06,85872
6277f8b4e9145fb3dd34debd,ma_choice_v4_social_pilot2,6277f8b4e9145fb3dd34debd,4,Amount of alcohol present,0,A Little,A Moderate Amount,direction,8493,,,,,2022-06-30 14:33:11,85873
6277f8b4e9145fb3dd34debd,ma_choice_v4_social_pilot2,6277f8b4e9145fb3dd34debd,4,Amount of alcohol present,0,A Moderate Amount,A Lot,direction,5411,,,,,2022-06-30 14:33:17,85874
6277f8b4e9145fb3dd34debd,ma_choice_v4_social_pilot2,6277f8b4e9145fb3dd34debd,5,Duration,0,30 minutes,90 minutes,direction,8828,,,,,2022-06-30 14:33:28,85875
6277f8b4e9145fb3dd34debd,ma_choice_v4_social_pilot2,6277f8b4e9145fb3dd34debd,5,Duration,0,30 minutes,50 minutes,direction,6459,,,,,2022-06-30 14:33:35,85876
6277f8b4e9145fb3dd34debd,ma_choice_v4_social_pilot2,6277f8b4e9145fb3dd34debd,5,Duration,0,50 minutes,60 minutes,direction,4276,,,,,2022-06-30 14:33:39,85877
6277f8b4e9145fb3dd34debd,ma_choice_v4_social_pilot2,6277f8b4e9145fb3dd34debd,5,Duration,0,60 minutes,80 minutes,direction,4289,,,,,2022-06-30 14:33:44,85878
6277f8b4e9145fb3dd34debd,ma_choice_v4_social_pilot2,6277f8b4e9145fb3dd34debd,5,Duration,0,80 minutes,90 minutes,direction,5256,,,,,2022-06-30 14:33:49,85879
60c93f189082587ea79ce324,ma_choice_v4_social_pilot2,60c93f189082587ea79ce324,6,Quality of socializing,50,,,wad_att_rating,6214,,,,,2022-06-30 14:33:51,85880
6277f8b4e9145fb3dd34debd,ma_choice_v4_social_pilot2,6277f8b4e9145fb3dd34debd,6,Number of other people present,1,3 people,12 people,direction,3689,,,,,2022-06-30 14:33:55,85881
60c93f189082587ea79ce324,ma_choice_v4_social_pilot2,60c93f189082587ea79ce324,4,Duration,76,,,wad_att_rating,4808,,,,,2022-06-30 14:33:55,85882
60c93f189082587ea79ce324,ma_choice_v4_social_pilot2,60c93f189082587ea79ce324,5,Quality of music playing,50,,,wad_att_rating,2603,,,,,2022-06-30 14:33:58,85883
6277f8b4e9145fb3dd34debd,ma_choice_v4_social_pilot2,6277f8b4e9145fb3dd34debd,6,Number of other people present,1,3 people,5 people,direction,3853,,,,,2022-06-30 14:33:59,85884
6277f8b4e9145fb3dd34debd,ma_choice_v4_social_pilot2,6277f8b4e9145fb3dd34debd,6,Number of other people present,1,5 people,8 people,direction,3874,,,,,2022-06-30 14:34:03,85885
60c93f189082587ea79ce324,ma_choice_v4_social_pilot2,60c93f189082587ea79ce324,0,Distance from home,26,,,wad_att_rating,6514,,,,,2022-06-30 14:34:04,85886
6277f8b4e9145fb3dd34debd,ma_choice_v4_social_pilot2,6277f8b4e9145fb3dd34debd,6,Number of other people present,1,8 people,10 people,direction,3474,,,,,2022-06-30 14:34:06,85887
6277f8b4e9145fb3dd34debd,ma_choice_v4_social_pilot2,6277f8b4e9145fb3dd34debd,6,Number of other people present,1,10 people,12 people,direction,3771,,,,,2022-06-30 14:34:10,85888
60c93f189082587ea79ce324,ma_choice_v4_social_pilot2,60c93f189082587ea79ce324,2,Amount of food present,75,,,wad_att_rating,5828,,,,,2022-06-30 14:34:10,85889
60c93f189082587ea79ce324,ma_choice_v4_social_pilot2,60c93f189082587ea79ce324,1,Amount of alcohol present,49,,,wad_att_rating,6111,,,,,2022-06-30 14:34:16,85890
