subject,version,assignmentId,trial,practice,opt1_id,opt2_id,attributes,opt1_values,opt2_values,choice,orig_choice,rt,stamp,id
5ff0f1b0dd8cf14ba8957c5b,ma_choice_v4_social_pilot1,5ff0f1b0dd8cf14ba8957c5b,0,1,-1,-1,"Number of other people present,Amount of music,Amount of physical activity,Distance from home,Amount of alcohol present,Indoors vs. outdoors,Amount of food present,Duration,Opportunity to socialize","9 people,None,None,30 min away,A Lot,Half Indoors and Half Outdoors,A Moderate Amount,30 minutes,None","5 people,A Moderate Amount,A Lot,15 min away,None,All Outdoors,None,70 minutes,A Moderate Amount",0,,16652,2022-06-27 19:03:00,194872
5ff0f1b0dd8cf14ba8957c5b,ma_choice_v4_social_pilot1,5ff0f1b0dd8cf14ba8957c5b,1,1,-1,-1,"Duration,Amount of food present,Indoors vs. outdoors,Amount of physical activity,Amount of music,Opportunity to socialize,Amount of alcohol present,Distance from home,Number of other people present","60 minutes,None,Mostly Indoors,None,A Moderate Amount,A Moderate Amount,A Moderate Amount,25 min away,5 people","40 minutes,A Moderate Amount,Mostly Outdoors,A Moderate Amount,None,None,None,50 min away,7 people",0,,4259,2022-06-27 19:03:05,194899
5ff0f1b0dd8cf14ba8957c5b,ma_choice_v4_social_pilot1,5ff0f1b0dd8cf14ba8957c5b,2,1,-1,-1,"Indoors vs. outdoors,Opportunity to socialize,Amount of physical activity,Number of other people present,Distance from home,Amount of music,Amount of alcohol present,Amount of food present,Duration","Half Indoors and Half Outdoors,A Little,A Little,8 people,45 min away,A Moderate Amount,A Moderate Amount,A Lot,80 minutes","All Indoors,A Lot,A Lot,5 people,30 min away,None,None,A Little,30 minutes",0,,3221,2022-06-27 19:03:09,194912
5ff0f1b0dd8cf14ba8957c5b,ma_choice_v4_social_pilot1,5ff0f1b0dd8cf14ba8957c5b,3,1,-1,-1,"Duration,Amount of alcohol present,Amount of music,Opportunity to socialize,Distance from home,Number of other people present,Amount of physical activity,Indoors vs. outdoors,Amount of food present","60 minutes,A Lot,None,A Little,30 min away,5 people,A Little,Mostly Indoors,A Moderate Amount","30 minutes,A Little,A Lot,A Lot,20 min away,11 people,A Lot,Mostly Outdoors,None",1,,2591,2022-06-27 19:03:13,194931
5ff0f1b0dd8cf14ba8957c5b,ma_choice_v4_social_pilot1,5ff0f1b0dd8cf14ba8957c5b,4,1,-1,-1,"Distance from home,Amount of physical activity,Indoors vs. outdoors,Amount of music,Amount of alcohol present,Opportunity to socialize,Number of other people present,Amount of food present,Duration","40 min away,A Little,Mostly Indoors,A Little,None,A Little,11 people,None,60 minutes","20 min away,A Lot,All Outdoors,A Lot,A Lot,A Lot,3 people,A Lot,30 minutes",1,,6457,2022-06-27 19:03:20,194958
5ff0f1b0dd8cf14ba8957c5b,ma_choice_v4_social_pilot1,5ff0f1b0dd8cf14ba8957c5b,5,1,-1,-1,"Distance from home,Amount of food present,Number of other people present,Indoors vs. outdoors,Amount of alcohol present,Amount of physical activity,Opportunity to socialize,Amount of music,Duration","45 min away,None,5 people,All Indoors,A Moderate Amount,A Lot,A Lot,None,70 minutes","35 min away,A Lot,3 people,All Outdoors,None,A Little,A Little,A Lot,40 minutes",0,,11887,2022-06-27 19:03:33,195008
5ff0f1b0dd8cf14ba8957c5b,ma_choice_v4_social_pilot1,5ff0f1b0dd8cf14ba8957c5b,6,1,-1,-1,"Amount of physical activity,Amount of alcohol present,Amount of food present,Opportunity to socialize,Indoors vs. outdoors,Distance from home,Amount of music,Duration,Number of other people present","A Moderate Amount,A Moderate Amount,A Moderate Amount,A Little,Mostly Indoors,10 min away,A Little,30 minutes,11 people","None,None,None,A Lot,All Outdoors,25 min away,A Lot,70 minutes,4 people",0,,5343,2022-06-27 19:03:39,195028
5ff0f1b0dd8cf14ba8957c5b,ma_choice_v4_social_pilot1,5ff0f1b0dd8cf14ba8957c5b,7,1,-1,-1,"Duration,Amount of alcohol present,Number of other people present,Amount of music,Amount of physical activity,Distance from home,Indoors vs. outdoors,Opportunity to socialize,Amount of food present","80 minutes,A Moderate Amount,7 people,None,A Little,15 min away,All Outdoors,A Moderate Amount,A Little","40 minutes,None,9 people,A Lot,A Lot,45 min away,Half Indoors and Half Outdoors,None,A Lot",1,,2089,2022-06-27 19:03:42,195042
5ff0f1b0dd8cf14ba8957c5b,ma_choice_v4_social_pilot1,5ff0f1b0dd8cf14ba8957c5b,8,1,-1,-1,"Indoors vs. outdoors,Amount of physical activity,Amount of food present,Distance from home,Amount of music,Opportunity to socialize,Duration,Amount of alcohol present,Number of other people present","Half Indoors and Half Outdoors,A Little,A Lot,10 min away,A Lot,A Little,60 minutes,A Moderate Amount,6 people","All Outdoors,A Lot,None,35 min away,A Little,A Lot,80 minutes,None,4 people",0,,6320,2022-06-27 19:03:50,195068
5ff0f1b0dd8cf14ba8957c5b,ma_choice_v4_social_pilot1,5ff0f1b0dd8cf14ba8957c5b,9,1,-1,-1,"Amount of food present,Opportunity to socialize,Distance from home,Amount of music,Indoors vs. outdoors,Amount of physical activity,Duration,Number of other people present,Amount of alcohol present","A Moderate Amount,None,35 min away,A Moderate Amount,Half Indoors and Half Outdoors,None,50 minutes,8 people,A Lot","None,A Lot,45 min away,None,All Indoors,A Lot,90 minutes,6 people,None",0,,3558,2022-06-27 19:03:54,195086
5ff0f1b0dd8cf14ba8957c5b,ma_choice_v4_social_pilot1,5ff0f1b0dd8cf14ba8957c5b,0,0,-1,-1,"Amount of alcohol present,Duration,Opportunity to socialize,Number of other people present,Amount of physical activity,Distance from home,Indoors vs. outdoors,Amount of music,Amount of food present","None,40 minutes,None,6 people,A Moderate Amount,15 min away,Half Indoors and Half Outdoors,A Little,A Little","A Moderate Amount,80 minutes,A Moderate Amount,4 people,None,45 min away,All Outdoors,A Lot,A Lot",1,,10459,2022-06-27 19:04:33,195231
5ff0f1b0dd8cf14ba8957c5b,ma_choice_v4_social_pilot1,5ff0f1b0dd8cf14ba8957c5b,1,0,-1,-1,"Indoors vs. outdoors,Amount of music,Amount of physical activity,Distance from home,Duration,Amount of food present,Opportunity to socialize,Amount of alcohol present,Number of other people present","All Indoors,A Moderate Amount,None,45 min away,50 minutes,A Little,A Little,A Little,8 people","Half Indoors and Half Outdoors,None,A Moderate Amount,30 min away,80 minutes,A Lot,A Lot,A Lot,4 people",1,,7192,2022-06-27 19:04:41,195262
5ff0f1b0dd8cf14ba8957c5b,ma_choice_v4_social_pilot1,5ff0f1b0dd8cf14ba8957c5b,2,0,-1,-1,"Number of other people present,Opportunity to socialize,Indoors vs. outdoors,Amount of music,Amount of alcohol present,Amount of food present,Duration,Distance from home,Amount of physical activity","11 people,None,All Outdoors,A Moderate Amount,A Lot,A Little,60 minutes,40 min away,A Moderate Amount","8 people,A Lot,All Indoors,None,A Little,A Lot,90 minutes,25 min away,None",0,,3796,2022-06-27 19:04:46,195289
5ff0f1b0dd8cf14ba8957c5b,ma_choice_v4_social_pilot1,5ff0f1b0dd8cf14ba8957c5b,3,0,-1,-1,"Distance from home,Opportunity to socialize,Amount of music,Number of other people present,Duration,Amount of physical activity,Indoors vs. outdoors,Amount of alcohol present,Amount of food present","10 min away,A Lot,A Lot,10 people,40 minutes,A Moderate Amount,All Outdoors,A Little,A Lot","50 min away,A Little,A Little,3 people,80 minutes,None,Mostly Indoors,A Lot,None",0,,5164,2022-06-27 19:04:52,195311
5ff0f1b0dd8cf14ba8957c5b,ma_choice_v4_social_pilot1,5ff0f1b0dd8cf14ba8957c5b,4,0,-1,-1,"Distance from home,Amount of physical activity,Duration,Opportunity to socialize,Indoors vs. outdoors,Amount of music,Number of other people present,Amount of alcohol present,Amount of food present","5 min away,A Lot,80 minutes,None,Half Indoors and Half Outdoors,None,5 people,A Moderate Amount,A Lot","40 min away,None,60 minutes,A Moderate Amount,All Indoors,A Moderate Amount,8 people,None,None",0,,2943,2022-06-27 19:04:56,195327
5ff0f1b0dd8cf14ba8957c5b,ma_choice_v4_social_pilot1,5ff0f1b0dd8cf14ba8957c5b,5,0,-1,-1,"Distance from home,Amount of physical activity,Indoors vs. outdoors,Amount of alcohol present,Opportunity to socialize,Number of other people present,Duration,Amount of food present,Amount of music","50 min away,A Little,Mostly Indoors,A Moderate Amount,None,9 people,50 minutes,A Little,None","20 min away,A Lot,All Outdoors,None,A Moderate Amount,4 people,90 minutes,A Lot,A Moderate Amount",1,,2011,2022-06-27 19:04:59,195338
5ff0f1b0dd8cf14ba8957c5b,ma_choice_v4_social_pilot1,5ff0f1b0dd8cf14ba8957c5b,6,0,-1,-1,"Amount of physical activity,Amount of food present,Number of other people present,Duration,Indoors vs. outdoors,Amount of music,Opportunity to socialize,Distance from home,Amount of alcohol present","A Lot,A Little,3 people,80 minutes,Half Indoors and Half Outdoors,A Little,A Little,20 min away,A Lot","A Little,A Lot,10 people,60 minutes,All Outdoors,A Lot,A Lot,30 min away,A Little",0,,6228,2022-06-27 19:05:06,195364
5ff0f1b0dd8cf14ba8957c5b,ma_choice_v4_social_pilot1,5ff0f1b0dd8cf14ba8957c5b,7,0,-1,-1,"Amount of physical activity,Opportunity to socialize,Amount of food present,Duration,Indoors vs. outdoors,Amount of music,Number of other people present,Distance from home,Amount of alcohol present","A Lot,A Moderate Amount,A Moderate Amount,60 minutes,All Indoors,None,10 people,10 min away,A Little","None,None,None,40 minutes,Mostly Outdoors,A Lot,4 people,35 min away,A Lot",1,,3995,2022-06-27 19:05:11,195387
62b9ac142a506642b5e0d9fb,ma_choice_v4_social_pilot1,62b9ac142a506642b5e0d9fb,0,1,-1,-1,"Number of other people present,Duration,Indoors vs. outdoors,Opportunity to socialize,Amount of music,Amount of alcohol present,Amount of food present,Amount of physical activity,Distance from home","6 people,30 minutes,Half Indoors and Half Outdoors,A Lot,A Moderate Amount,None,A Moderate Amount,A Moderate Amount,20 min away","10 people,70 minutes,All Outdoors,None,None,A Moderate Amount,None,None,40 min away",0,,23053,2022-06-27 19:05:16,195409
5ff0f1b0dd8cf14ba8957c5b,ma_choice_v4_social_pilot1,5ff0f1b0dd8cf14ba8957c5b,8,0,-1,-1,"Amount of music,Indoors vs. outdoors,Number of other people present,Duration,Distance from home,Amount of physical activity,Amount of food present,Amount of alcohol present,Opportunity to socialize","A Lot,Mostly Outdoors,9 people,30 minutes,45 min away,A Lot,A Little,A Lot,None","A Little,Mostly Indoors,3 people,80 minutes,25 min away,None,A Lot,None,A Lot",0,,5733,2022-06-27 19:05:18,195415
5ff0f1b0dd8cf14ba8957c5b,ma_choice_v4_social_pilot1,5ff0f1b0dd8cf14ba8957c5b,9,0,-1,-1,"Amount of music,Indoors vs. outdoors,Amount of alcohol present,Number of other people present,Amount of food present,Distance from home,Opportunity to socialize,Amount of physical activity,Duration","A Lot,All Outdoors,None,7 people,A Moderate Amount,15 min away,A Little,A Little,40 minutes","None,Mostly Indoors,A Moderate Amount,4 people,None,30 min away,A Lot,A Lot,70 minutes",1,,15323,2022-06-27 19:05:34,195477
62b9ac142a506642b5e0d9fb,ma_choice_v4_social_pilot1,62b9ac142a506642b5e0d9fb,1,1,-1,-1,"Opportunity to socialize,Duration,Amount of alcohol present,Indoors vs. outdoors,Amount of music,Number of other people present,Distance from home,Amount of food present,Amount of physical activity","A Lot,90 minutes,A Little,All Indoors,A Little,9 people,25 min away,A Little,None","None,30 minutes,A Lot,All Outdoors,A Lot,5 people,60 min away,A Lot,A Moderate Amount",1,,18936,2022-06-27 19:05:36,195485
5ff0f1b0dd8cf14ba8957c5b,ma_choice_v4_social_pilot1,5ff0f1b0dd8cf14ba8957c5b,10,0,-1,-1,"Opportunity to socialize,Amount of physical activity,Indoors vs. outdoors,Amount of food present,Amount of alcohol present,Duration,Amount of music,Distance from home,Number of other people present","A Moderate Amount,None,Half Indoors and Half Outdoors,None,None,50 minutes,A Moderate Amount,20 min away,3 people","None,A Moderate Amount,All Outdoors,A Moderate Amount,A Lot,70 minutes,None,40 min away,7 people",1,,9447,2022-06-27 19:05:45,195514
5ff0f1b0dd8cf14ba8957c5b,ma_choice_v4_social_pilot1,5ff0f1b0dd8cf14ba8957c5b,11,0,-1,-1,"Amount of music,Amount of alcohol present,Duration,Number of other people present,Distance from home,Indoors vs. outdoors,Amount of food present,Amount of physical activity,Opportunity to socialize","None,A Moderate Amount,70 minutes,9 people,5 min away,Half Indoors and Half Outdoors,A Lot,A Little,A Lot","A Lot,None,30 minutes,7 people,45 min away,All Outdoors,A Little,A Lot,None",0,,3369,2022-06-27 19:05:49,195531
5ff0f1b0dd8cf14ba8957c5b,ma_choice_v4_social_pilot1,5ff0f1b0dd8cf14ba8957c5b,12,0,-1,-1,"Distance from home,Amount of music,Amount of alcohol present,Number of other people present,Duration,Indoors vs. outdoors,Opportunity to socialize,Amount of physical activity,Amount of food present","25 min away,A Lot,A Lot,8 people,40 minutes,All Outdoors,A Moderate Amount,A Lot,A Lot","45 min away,A Little,None,11 people,60 minutes,All Indoors,None,None,A Little",0,,2239,2022-06-27 19:05:53,195536
62b9ac142a506642b5e0d9fb,ma_choice_v4_social_pilot1,62b9ac142a506642b5e0d9fb,2,1,-1,-1,"Indoors vs. outdoors,Amount of music,Opportunity to socialize,Amount of physical activity,Distance from home,Amount of food present,Number of other people present,Duration,Amount of alcohol present","Mostly Outdoors,A Moderate Amount,A Moderate Amount,A Moderate Amount,50 min away,None,7 people,50 minutes,A Lot","Mostly Indoors,None,None,None,20 min away,A Lot,3 people,80 minutes,None",0,,18659,2022-06-27 19:05:56,195547
5ff0f1b0dd8cf14ba8957c5b,ma_choice_v4_social_pilot1,5ff0f1b0dd8cf14ba8957c5b,13,0,-1,-1,"Indoors vs. outdoors,Number of other people present,Amount of food present,Amount of physical activity,Amount of alcohol present,Duration,Opportunity to socialize,Amount of music,Distance from home","Mostly Outdoors,5 people,A Little,A Little,A Moderate Amount,40 minutes,A Lot,A Little,35 min away","Mostly Indoors,10 people,A Lot,A Lot,None,80 minutes,None,A Lot,15 min away",0,,5272,2022-06-27 19:05:59,195561
5ff0f1b0dd8cf14ba8957c5b,ma_choice_v4_social_pilot1,5ff0f1b0dd8cf14ba8957c5b,14,0,-1,-1,"Amount of physical activity,Amount of music,Distance from home,Indoors vs. outdoors,Duration,Number of other people present,Amount of alcohol present,Opportunity to socialize,Amount of food present","None,A Little,20 min away,All Outdoors,40 minutes,6 people,A Little,A Lot,A Little","A Lot,A Lot,10 min away,All Indoors,70 minutes,4 people,A Lot,A Little,A Lot",1,,4742,2022-06-27 19:06:05,195584
5ff0f1b0dd8cf14ba8957c5b,ma_choice_v4_social_pilot1,5ff0f1b0dd8cf14ba8957c5b,15,0,-1,-1,"Indoors vs. outdoors,Opportunity to socialize,Amount of alcohol present,Amount of music,Duration,Amount of physical activity,Number of other people present,Distance from home,Amount of food present","All Outdoors,None,A Little,A Moderate Amount,80 minutes,A Lot,11 people,20 min away,A Lot","All Indoors,A Lot,A Lot,None,50 minutes,None,6 people,55 min away,None",1,,4381,2022-06-27 19:06:10,195604
5ff0f1b0dd8cf14ba8957c5b,ma_choice_v4_social_pilot1,5ff0f1b0dd8cf14ba8957c5b,16,0,-1,-1,"Distance from home,Duration,Indoors vs. outdoors,Opportunity to socialize,Number of other people present,Amount of food present,Amount of music,Amount of alcohol present,Amount of physical activity","50 min away,60 minutes,All Indoors,None,10 people,A Little,A Moderate Amount,A Little,A Lot","15 min away,80 minutes,All Outdoors,A Lot,5 people,A Lot,None,A Lot,A Little",1,,3544,2022-06-27 19:06:14,195618
5ff0f1b0dd8cf14ba8957c5b,ma_choice_v4_social_pilot1,5ff0f1b0dd8cf14ba8957c5b,17,0,-1,-1,"Duration,Distance from home,Amount of food present,Indoors vs. outdoors,Amount of physical activity,Number of other people present,Amount of alcohol present,Opportunity to socialize,Amount of music","90 minutes,30 min away,None,Mostly Outdoors,A Lot,8 people,A Moderate Amount,A Moderate Amount,A Lot","60 minutes,10 min away,A Moderate Amount,All Indoors,None,10 people,None,None,None",0,,5001,2022-06-27 19:06:20,195644
62b9ac142a506642b5e0d9fb,ma_choice_v4_social_pilot1,62b9ac142a506642b5e0d9fb,3,1,-1,-1,"Amount of alcohol present,Amount of food present,Distance from home,Amount of physical activity,Number of other people present,Indoors vs. outdoors,Duration,Opportunity to socialize,Amount of music","None,A Little,25 min away,A Moderate Amount,4 people,Mostly Outdoors,30 minutes,A Lot,A Moderate Amount","A Lot,A Lot,45 min away,None,9 people,Mostly Indoors,90 minutes,A Little,None",1,,25383,2022-06-27 19:06:22,195653
5ff0f1b0dd8cf14ba8957c5b,ma_choice_v4_social_pilot1,5ff0f1b0dd8cf14ba8957c5b,18,0,-1,-1,"Opportunity to socialize,Amount of music,Amount of food present,Number of other people present,Amount of physical activity,Amount of alcohol present,Duration,Distance from home,Indoors vs. outdoors","None,A Lot,A Lot,3 people,None,A Little,70 minutes,50 min away,Mostly Indoors","A Lot,A Little,A Little,7 people,A Lot,A Lot,40 minutes,40 min away,Mostly Outdoors",1,,2813,2022-06-27 19:06:24,195660
5ff0f1b0dd8cf14ba8957c5b,ma_choice_v4_social_pilot1,5ff0f1b0dd8cf14ba8957c5b,19,0,-1,-1,"Amount of alcohol present,Duration,Amount of food present,Distance from home,Opportunity to socialize,Amount of physical activity,Amount of music,Indoors vs. outdoors,Number of other people present","A Little,30 minutes,A Little,50 min away,A Moderate Amount,A Little,A Lot,All Indoors,11 people","A Lot,50 minutes,A Lot,40 min away,None,A Lot,A Little,Mostly Outdoors,7 people",1,,1668,2022-06-27 19:06:27,195673
5ff0f1b0dd8cf14ba8957c5b,ma_choice_v4_social_pilot1,5ff0f1b0dd8cf14ba8957c5b,20,0,-1,-1,"Amount of alcohol present,Amount of physical activity,Duration,Amount of music,Number of other people present,Opportunity to socialize,Distance from home,Indoors vs. outdoors,Amount of food present","A Little,A Little,50 minutes,A Moderate Amount,6 people,A Moderate Amount,25 min away,Mostly Indoors,A Moderate Amount","A Lot,A Lot,80 minutes,None,3 people,None,55 min away,Mostly Outdoors,None",1,,3862,2022-06-27 19:06:32,195690
5ff0f1b0dd8cf14ba8957c5b,ma_choice_v4_social_pilot1,5ff0f1b0dd8cf14ba8957c5b,21,0,-1,-1,"Distance from home,Amount of music,Amount of alcohol present,Number of other people present,Opportunity to socialize,Duration,Amount of physical activity,Indoors vs. outdoors,Amount of food present","40 min away,A Moderate Amount,A Moderate Amount,9 people,A Moderate Amount,80 minutes,A Lot,Mostly Indoors,A Lot","15 min away,None,None,11 people,None,50 minutes,None,All Outdoors,A Little",0,,4952,2022-06-27 19:06:38,195709
62b9ac142a506642b5e0d9fb,ma_choice_v4_social_pilot1,62b9ac142a506642b5e0d9fb,4,1,-1,-1,"Amount of music,Number of other people present,Amount of physical activity,Duration,Indoors vs. outdoors,Amount of food present,Opportunity to socialize,Amount of alcohol present,Distance from home","A Moderate Amount,5 people,A Lot,50 minutes,Mostly Indoors,A Moderate Amount,A Lot,A Lot,25 min away","None,8 people,A Little,80 minutes,Mostly Outdoors,None,A Little,A Little,35 min away",0,,15153,2022-06-27 19:06:39,195714
5ff0f1b0dd8cf14ba8957c5b,ma_choice_v4_social_pilot1,5ff0f1b0dd8cf14ba8957c5b,22,0,-1,-1,"Amount of physical activity,Duration,Indoors vs. outdoors,Amount of food present,Number of other people present,Amount of music,Distance from home,Amount of alcohol present,Opportunity to socialize","None,70 minutes,Mostly Indoors,A Little,6 people,A Little,10 min away,None,A Moderate Amount","A Lot,30 minutes,Mostly Outdoors,A Lot,10 people,A Lot,55 min away,A Lot,None",1,,12705,2022-06-27 19:06:52,195764
62b9ac142a506642b5e0d9fb,ma_choice_v4_social_pilot1,62b9ac142a506642b5e0d9fb,5,1,-1,-1,"Amount of food present,Number of other people present,Duration,Amount of physical activity,Opportunity to socialize,Amount of music,Distance from home,Indoors vs. outdoors,Amount of alcohol present","A Lot,9 people,60 minutes,A Moderate Amount,A Little,A Lot,20 min away,Mostly Outdoors,A Lot","A Little,4 people,40 minutes,None,A Lot,None,45 min away,All Indoors,None",0,,12434,2022-06-27 19:06:52,195767
5ff0f1b0dd8cf14ba8957c5b,ma_choice_v4_social_pilot1,5ff0f1b0dd8cf14ba8957c5b,23,0,-1,-1,"Amount of physical activity,Amount of alcohol present,Duration,Distance from home,Amount of music,Number of other people present,Indoors vs. outdoors,Amount of food present,Opportunity to socialize","None,A Moderate Amount,90 minutes,30 min away,A Moderate Amount,11 people,Mostly Indoors,A Little,A Little","A Lot,None,60 minutes,40 min away,None,3 people,All Outdoors,A Lot,A Lot",0,,5297,2022-06-27 19:06:58,195789
5ff0f1b0dd8cf14ba8957c5b,ma_choice_v4_social_pilot1,5ff0f1b0dd8cf14ba8957c5b,24,0,-1,-1,"Amount of alcohol present,Duration,Distance from home,Number of other people present,Opportunity to socialize,Amount of music,Amount of physical activity,Indoors vs. outdoors,Amount of food present","A Moderate Amount,50 minutes,35 min away,9 people,A Moderate Amount,A Lot,A Moderate Amount,All Indoors,A Little","None,80 minutes,20 min away,6 people,None,A Little,None,Mostly Outdoors,A Lot",0,,2103,2022-06-27 19:07:01,195799
5ff0f1b0dd8cf14ba8957c5b,ma_choice_v4_social_pilot1,5ff0f1b0dd8cf14ba8957c5b,25,0,-1,-1,"Number of other people present,Amount of music,Distance from home,Duration,Amount of physical activity,Amount of alcohol present,Amount of food present,Opportunity to socialize,Indoors vs. outdoors","6 people,None,10 min away,70 minutes,A Moderate Amount,None,None,A Lot,Mostly Indoors","3 people,A Lot,35 min away,30 minutes,None,A Lot,A Moderate Amount,A Little,All Outdoors",1,,2204,2022-06-27 19:07:04,195817
5ff0f1b0dd8cf14ba8957c5b,ma_choice_v4_social_pilot1,5ff0f1b0dd8cf14ba8957c5b,26,0,-1,-1,"Amount of food present,Duration,Indoors vs. outdoors,Amount of physical activity,Opportunity to socialize,Amount of alcohol present,Amount of music,Distance from home,Number of other people present","A Little,90 minutes,Mostly Indoors,A Moderate Amount,A Lot,A Lot,A Little,60 min away,11 people","A Lot,30 minutes,All Outdoors,None,None,None,A Lot,45 min away,8 people",0,,1438,2022-06-27 19:07:07,195829
62b9ac142a506642b5e0d9fb,ma_choice_v4_social_pilot1,62b9ac142a506642b5e0d9fb,6,1,-1,-1,"Indoors vs. outdoors,Amount of music,Amount of physical activity,Amount of alcohol present,Duration,Distance from home,Amount of food present,Number of other people present,Opportunity to socialize","All Indoors,A Moderate Amount,A Lot,A Moderate Amount,90 minutes,35 min away,A Moderate Amount,5 people,A Little","All Outdoors,None,None,None,50 minutes,50 min away,None,3 people,A Lot",1,,15200,2022-06-27 19:07:08,195836
5ff0f1b0dd8cf14ba8957c5b,ma_choice_v4_social_pilot1,5ff0f1b0dd8cf14ba8957c5b,27,0,-1,-1,"Indoors vs. outdoors,Duration,Number of other people present,Distance from home,Amount of music,Amount of alcohol present,Amount of food present,Amount of physical activity,Opportunity to socialize","Mostly Indoors,50 minutes,10 people,25 min away,A Lot,A Little,A Little,A Little,A Moderate Amount","All Outdoors,90 minutes,5 people,15 min away,None,A Lot,A Lot,A Lot,None",0,,2305,2022-06-27 19:07:10,195840
5ff0f1b0dd8cf14ba8957c5b,ma_choice_v4_social_pilot1,5ff0f1b0dd8cf14ba8957c5b,28,0,-1,-1,"Opportunity to socialize,Distance from home,Amount of food present,Amount of physical activity,Amount of music,Duration,Number of other people present,Indoors vs. outdoors,Amount of alcohol present","A Moderate Amount,45 min away,None,A Little,A Moderate Amount,40 minutes,7 people,All Indoors,None","None,15 min away,A Lot,A Lot,None,90 minutes,3 people,Half Indoors and Half Outdoors,A Moderate Amount",1,,4939,2022-06-27 19:07:16,195869
5ff0f1b0dd8cf14ba8957c5b,ma_choice_v4_social_pilot1,5ff0f1b0dd8cf14ba8957c5b,29,0,-1,-1,"Number of other people present,Amount of alcohol present,Opportunity to socialize,Amount of music,Amount of food present,Distance from home,Indoors vs. outdoors,Duration,Amount of physical activity","11 people,None,A Little,A Moderate Amount,A Lot,10 min away,Mostly Indoors,60 minutes,None","7 people,A Moderate Amount,A Lot,None,None,55 min away,All Outdoors,40 minutes,A Moderate Amount",1,,3225,2022-06-27 19:07:20,195886
62b9ac142a506642b5e0d9fb,ma_choice_v4_social_pilot1,62b9ac142a506642b5e0d9fb,7,1,-1,-1,"Number of other people present,Indoors vs. outdoors,Amount of alcohol present,Distance from home,Duration,Amount of music,Amount of food present,Opportunity to socialize,Amount of physical activity","7 people,Half Indoors and Half Outdoors,A Moderate Amount,35 min away,50 minutes,A Lot,A Moderate Amount,A Moderate Amount,A Lot","3 people,All Outdoors,None,15 min away,30 minutes,None,None,None,A Little",1,,13957,2022-06-27 19:07:23,195901
5ff0f1b0dd8cf14ba8957c5b,ma_choice_v4_social_pilot1,5ff0f1b0dd8cf14ba8957c5b,30,0,-1,-1,"Number of other people present,Indoors vs. outdoors,Duration,Amount of food present,Amount of alcohol present,Opportunity to socialize,Amount of physical activity,Distance from home,Amount of music","8 people,Mostly Indoors,70 minutes,A Little,A Little,A Moderate Amount,A Little,50 min away,A Moderate Amount","11 people,Mostly Outdoors,40 minutes,A Lot,A Lot,None,A Lot,20 min away,None",1,,4070,2022-06-27 19:07:25,195909
62b9ac142a506642b5e0d9fb,ma_choice_v4_social_pilot1,62b9ac142a506642b5e0d9fb,8,1,-1,-1,"Distance from home,Number of other people present,Amount of physical activity,Duration,Amount of alcohol present,Opportunity to socialize,Indoors vs. outdoors,Amount of food present,Amount of music","5 min away,10 people,None,30 minutes,None,A Little,All Outdoors,A Little,A Little","40 min away,8 people,A Moderate Amount,80 minutes,A Moderate Amount,A Lot,All Indoors,A Lot,A Lot",1,,18225,2022-06-27 19:07:42,195976
5ff0f1b0dd8cf14ba8957c5b,ma_choice_v4_social_pilot1,5ff0f1b0dd8cf14ba8957c5b,31,0,-1,-1,"Duration,Amount of music,Amount of alcohol present,Distance from home,Opportunity to socialize,Amount of physical activity,Amount of food present,Number of other people present,Indoors vs. outdoors","70 minutes,A Lot,A Moderate Amount,55 min away,A Little,A Moderate Amount,A Lot,9 people,All Outdoors","90 minutes,None,None,10 min away,A Lot,None,A Little,11 people,All Indoors",0,,20925,2022-06-27 19:07:47,195995
5ff0f1b0dd8cf14ba8957c5b,ma_choice_v4_social_pilot1,5ff0f1b0dd8cf14ba8957c5b,32,0,-1,-1,"Number of other people present,Amount of alcohol present,Indoors vs. outdoors,Duration,Amount of food present,Distance from home,Amount of music,Opportunity to socialize,Amount of physical activity","4 people,None,Mostly Indoors,90 minutes,A Moderate Amount,10 min away,A Little,A Lot,A Moderate Amount","8 people,A Lot,All Outdoors,40 minutes,None,45 min away,A Lot,A Little,None",1,,2142,2022-06-27 19:07:50,196006
5ff0f1b0dd8cf14ba8957c5b,ma_choice_v4_social_pilot1,5ff0f1b0dd8cf14ba8957c5b,33,0,-1,-1,"Distance from home,Amount of physical activity,Duration,Amount of music,Opportunity to socialize,Amount of food present,Amount of alcohol present,Number of other people present,Indoors vs. outdoors","50 min away,None,70 minutes,A Moderate Amount,A Moderate Amount,A Little,None,8 people,All Outdoors","10 min away,A Moderate Amount,30 minutes,None,None,A Lot,A Moderate Amount,10 people,Mostly Indoors",1,,2794,2022-06-27 19:07:54,196021
62b9ac142a506642b5e0d9fb,ma_choice_v4_social_pilot1,62b9ac142a506642b5e0d9fb,9,1,-1,-1,"Amount of music,Amount of physical activity,Amount of food present,Duration,Opportunity to socialize,Amount of alcohol present,Distance from home,Indoors vs. outdoors,Number of other people present","A Lot,A Lot,None,40 minutes,A Lot,A Moderate Amount,45 min away,Mostly Outdoors,8 people","A Little,None,A Moderate Amount,90 minutes,A Little,None,35 min away,All Indoors,10 people",1,,14177,2022-06-27 19:07:58,196042
5ff0f1b0dd8cf14ba8957c5b,ma_choice_v4_social_pilot1,5ff0f1b0dd8cf14ba8957c5b,34,0,-1,-1,"Number of other people present,Amount of food present,Amount of alcohol present,Opportunity to socialize,Duration,Amount of music,Amount of physical activity,Distance from home,Indoors vs. outdoors","4 people,None,A Lot,A Lot,50 minutes,None,A Lot,30 min away,All Indoors","6 people,A Moderate Amount,None,None,70 minutes,A Lot,None,20 min away,All Outdoors",0,,3881,2022-06-27 19:07:59,196045
5ff0f1b0dd8cf14ba8957c5b,ma_choice_v4_social_pilot1,5ff0f1b0dd8cf14ba8957c5b,35,0,-1,-1,"Amount of alcohol present,Amount of physical activity,Opportunity to socialize,Indoors vs. outdoors,Distance from home,Amount of music,Duration,Amount of food present,Number of other people present","A Little,A Little,A Little,Mostly Outdoors,15 min away,A Lot,40 minutes,A Lot,11 people","A Lot,A Lot,A Lot,All Indoors,50 min away,None,60 minutes,None,8 people",1,,1782,2022-06-27 19:08:02,196056
5ff0f1b0dd8cf14ba8957c5b,ma_choice_v4_social_pilot1,5ff0f1b0dd8cf14ba8957c5b,36,0,-1,-1,"Duration,Amount of alcohol present,Amount of music,Amount of food present,Number of other people present,Distance from home,Indoors vs. outdoors,Amount of physical activity,Opportunity to socialize","40 minutes,A Lot,None,A Lot,10 people,25 min away,Mostly Outdoors,A Moderate Amount,A Little","90 minutes,None,A Lot,A Little,4 people,45 min away,Mostly Indoors,None,A Lot",0,,3235,2022-06-27 19:08:06,196081
5ff0f1b0dd8cf14ba8957c5b,ma_choice_v4_social_pilot1,5ff0f1b0dd8cf14ba8957c5b,37,0,-1,-1,"Duration,Indoors vs. outdoors,Amount of food present,Number of other people present,Amount of alcohol present,Amount of physical activity,Distance from home,Amount of music,Opportunity to socialize","90 minutes,All Outdoors,A Lot,5 people,A Little,None,20 min away,None,A Lot","40 minutes,Mostly Indoors,A Little,11 people,A Lot,A Lot,55 min away,A Lot,A Little",1,,3622,2022-06-27 19:08:11,196098
5ff0f1b0dd8cf14ba8957c5b,ma_choice_v4_social_pilot1,5ff0f1b0dd8cf14ba8957c5b,38,0,-1,-1,"Opportunity to socialize,Amount of alcohol present,Amount of food present,Indoors vs. outdoors,Distance from home,Amount of music,Number of other people present,Duration,Amount of physical activity","A Moderate Amount,A Moderate Amount,None,Half Indoors and Half Outdoors,25 min away,A Moderate Amount,4 people,90 minutes,A Little","None,None,A Moderate Amount,All Outdoors,50 min away,None,9 people,40 minutes,A Lot",0,,2139,2022-06-27 19:08:14,196109
5ff0f1b0dd8cf14ba8957c5b,ma_choice_v4_social_pilot1,5ff0f1b0dd8cf14ba8957c5b,39,0,-1,-1,"Duration,Amount of alcohol present,Amount of food present,Distance from home,Amount of music,Number of other people present,Indoors vs. outdoors,Amount of physical activity,Opportunity to socialize","40 minutes,None,A Moderate Amount,45 min away,A Little,6 people,Half Indoors and Half Outdoors,A Moderate Amount,A Moderate Amount","60 minutes,A Moderate Amount,None,20 min away,A Lot,3 people,All Indoors,None,None",1,,1600,2022-06-27 19:08:16,196122
5ff0f1b0dd8cf14ba8957c5b,ma_choice_v4_social_pilot1,5ff0f1b0dd8cf14ba8957c5b,40,0,-1,-1,"Amount of music,Amount of physical activity,Duration,Amount of food present,Distance from home,Number of other people present,Opportunity to socialize,Amount of alcohol present,Indoors vs. outdoors","A Lot,None,80 minutes,A Moderate Amount,35 min away,3 people,A Little,A Lot,All Indoors","A Little,A Moderate Amount,40 minutes,None,15 min away,11 people,A Lot,A Little,Mostly Outdoors",0,,3995,2022-06-27 19:08:21,196143
5ff0f1b0dd8cf14ba8957c5b,ma_choice_v4_social_pilot1,5ff0f1b0dd8cf14ba8957c5b,41,0,-1,-1,"Amount of physical activity,Number of other people present,Duration,Amount of food present,Opportunity to socialize,Distance from home,Indoors vs. outdoors,Amount of music,Amount of alcohol present","A Lot,5 people,60 minutes,A Little,A Little,10 min away,All Indoors,A Moderate Amount,None","A Little,7 people,30 minutes,A Lot,A Lot,40 min away,Half Indoors and Half Outdoors,None,A Moderate Amount",1,,3753,2022-06-27 19:08:26,196159
5ff0f1b0dd8cf14ba8957c5b,ma_choice_v4_social_pilot1,5ff0f1b0dd8cf14ba8957c5b,42,0,-1,-1,"Amount of food present,Indoors vs. outdoors,Number of other people present,Distance from home,Opportunity to socialize,Amount of alcohol present,Amount of physical activity,Amount of music,Duration","A Moderate Amount,All Outdoors,4 people,30 min away,None,A Moderate Amount,None,A Moderate Amount,80 minutes","None,Half Indoors and Half Outdoors,9 people,10 min away,A Moderate Amount,None,A Lot,None,50 minutes",0,,3371,2022-06-27 19:08:30,196181
5ff0f1b0dd8cf14ba8957c5b,ma_choice_v4_social_pilot1,5ff0f1b0dd8cf14ba8957c5b,43,0,-1,-1,"Amount of alcohol present,Opportunity to socialize,Indoors vs. outdoors,Amount of physical activity,Duration,Amount of music,Amount of food present,Number of other people present,Distance from home","A Lot,A Moderate Amount,Mostly Indoors,A Moderate Amount,60 minutes,A Little,None,8 people,30 min away","None,None,Mostly Outdoors,None,90 minutes,A Lot,A Moderate Amount,10 people,40 min away",0,,8767,2022-06-27 19:08:40,196226
62b9ac142a506642b5e0d9fb,ma_choice_v4_social_pilot1,62b9ac142a506642b5e0d9fb,0,0,-1,-1,"Opportunity to socialize,Amount of alcohol present,Number of other people present,Amount of music,Duration,Amount of physical activity,Distance from home,Indoors vs. outdoors,Amount of food present","None,A Little,8 people,A Lot,40 minutes,None,30 min away,Mostly Outdoors,A Moderate Amount","A Moderate Amount,A Lot,3 people,A Little,90 minutes,A Lot,20 min away,Mostly Indoors,None",0,,15123,2022-06-27 19:08:50,196262
62b9ac142a506642b5e0d9fb,ma_choice_v4_social_pilot1,62b9ac142a506642b5e0d9fb,1,0,-1,-1,"Number of other people present,Distance from home,Indoors vs. outdoors,Amount of physical activity,Amount of food present,Amount of music,Amount of alcohol present,Opportunity to socialize,Duration","10 people,20 min away,Half Indoors and Half Outdoors,A Little,A Lot,A Little,A Lot,A Lot,50 minutes","5 people,35 min away,All Outdoors,A Lot,A Little,A Lot,None,None,30 minutes",0,,15679,2022-06-27 19:09:06,196331
5ff0f1b0dd8cf14ba8957c5b,ma_choice_v4_social_pilot1,5ff0f1b0dd8cf14ba8957c5b,44,0,-1,-1,"Opportunity to socialize,Distance from home,Amount of physical activity,Amount of alcohol present,Amount of food present,Number of other people present,Indoors vs. outdoors,Duration,Amount of music","A Lot,35 min away,A Lot,A Moderate Amount,A Moderate Amount,10 people,Mostly Indoors,70 minutes,A Moderate Amount","None,10 min away,None,None,None,4 people,Mostly Outdoors,50 minutes,None",0,,32980,2022-06-27 19:09:14,196364
5ff0f1b0dd8cf14ba8957c5b,ma_choice_v4_social_pilot1,5ff0f1b0dd8cf14ba8957c5b,45,0,-1,-1,"Indoors vs. outdoors,Amount of music,Distance from home,Opportunity to socialize,Amount of physical activity,Amount of alcohol present,Duration,Number of other people present,Amount of food present","Half Indoors and Half Outdoors,A Moderate Amount,40 min away,A Moderate Amount,None,A Lot,50 minutes,11 people,A Little","All Indoors,None,10 min away,None,A Lot,A Little,70 minutes,6 people,A Lot",0,,2150,2022-06-27 19:09:17,196378
5ff0f1b0dd8cf14ba8957c5b,ma_choice_v4_social_pilot1,5ff0f1b0dd8cf14ba8957c5b,46,0,-1,-1,"Indoors vs. outdoors,Amount of food present,Amount of music,Opportunity to socialize,Duration,Number of other people present,Distance from home,Amount of alcohol present,Amount of physical activity","Mostly Outdoors,A Lot,A Little,None,50 minutes,6 people,50 min away,A Lot,None","All Indoors,A Little,A Lot,A Lot,80 minutes,8 people,25 min away,A Little,A Lot",0,,5514,2022-06-27 19:09:24,196402
5ff0f1b0dd8cf14ba8957c5b,ma_choice_v4_social_pilot1,5ff0f1b0dd8cf14ba8957c5b,47,0,-1,-1,"Amount of music,Number of other people present,Opportunity to socialize,Distance from home,Amount of alcohol present,Duration,Indoors vs. outdoors,Amount of physical activity,Amount of food present","A Little,6 people,None,10 min away,None,50 minutes,Half Indoors and Half Outdoors,A Lot,None","A Lot,8 people,A Lot,30 min away,A Lot,30 minutes,All Outdoors,None,A Lot",1,,2286,2022-06-27 19:09:27,196418
5ff0f1b0dd8cf14ba8957c5b,ma_choice_v4_social_pilot1,5ff0f1b0dd8cf14ba8957c5b,48,0,-1,-1,"Indoors vs. outdoors,Distance from home,Amount of physical activity,Duration,Amount of music,Amount of food present,Amount of alcohol present,Number of other people present,Opportunity to socialize","Mostly Indoors,45 min away,A Moderate Amount,80 minutes,A Moderate Amount,A Lot,A Little,9 people,None","Mostly Outdoors,55 min away,None,60 minutes,None,None,A Lot,6 people,A Lot",1,,1798,2022-06-27 19:09:30,196428
5ff0f1b0dd8cf14ba8957c5b,ma_choice_v4_social_pilot1,5ff0f1b0dd8cf14ba8957c5b,49,0,-1,-1,"Opportunity to socialize,Indoors vs. outdoors,Distance from home,Amount of food present,Amount of music,Number of other people present,Amount of alcohol present,Duration,Amount of physical activity","A Lot,Mostly Outdoors,35 min away,None,A Lot,10 people,None,50 minutes,A Little","A Little,All Indoors,45 min away,A Moderate Amount,None,5 people,A Moderate Amount,90 minutes,A Lot",1,,2558,2022-06-27 19:09:34,196441
5ff0f1b0dd8cf14ba8957c5b,ma_choice_v4_social_pilot1,5ff0f1b0dd8cf14ba8957c5b,50,0,-1,-1,"Duration,Amount of alcohol present,Distance from home,Amount of physical activity,Number of other people present,Amount of food present,Opportunity to socialize,Amount of music,Indoors vs. outdoors","40 minutes,None,50 min away,A Moderate Amount,3 people,A Little,A Lot,A Little,All Indoors","70 minutes,A Moderate Amount,60 min away,None,7 people,A Lot,A Little,A Lot,Mostly Outdoors",1,,3163,2022-06-27 19:09:38,196466
5ff0f1b0dd8cf14ba8957c5b,ma_choice_v4_social_pilot1,5ff0f1b0dd8cf14ba8957c5b,51,0,-1,-1,"Duration,Amount of physical activity,Distance from home,Number of other people present,Amount of alcohol present,Amount of food present,Amount of music,Indoors vs. outdoors,Opportunity to socialize","60 minutes,A Little,5 min away,4 people,A Little,None,None,All Indoors,A Moderate Amount","80 minutes,A Lot,15 min away,10 people,A Lot,A Lot,A Moderate Amount,Half Indoors and Half Outdoors,None",1,,3416,2022-06-27 19:09:42,196484
62b9ac142a506642b5e0d9fb,ma_choice_v4_social_pilot1,62b9ac142a506642b5e0d9fb,2,0,-1,-1,"Duration,Amount of food present,Amount of physical activity,Opportunity to socialize,Distance from home,Indoors vs. outdoors,Number of other people present,Amount of music,Amount of alcohol present","80 minutes,A Little,None,A Moderate Amount,35 min away,Half Indoors and Half Outdoors,10 people,A Little,None","40 minutes,A Lot,A Lot,None,15 min away,All Indoors,7 people,A Lot,A Lot",0,,37365,2022-06-27 19:09:45,196494
5ff0f1b0dd8cf14ba8957c5b,ma_choice_v4_social_pilot1,5ff0f1b0dd8cf14ba8957c5b,52,0,-1,-1,"Opportunity to socialize,Amount of food present,Number of other people present,Amount of alcohol present,Distance from home,Indoors vs. outdoors,Amount of music,Amount of physical activity,Duration","A Lot,A Moderate Amount,4 people,A Lot,45 min away,All Outdoors,None,A Lot,60 minutes","A Little,None,8 people,A Little,5 min away,Half Indoors and Half Outdoors,A Lot,None,40 minutes",0,,2137,2022-06-27 19:09:45,196498
5ff0f1b0dd8cf14ba8957c5b,ma_choice_v4_social_pilot1,5ff0f1b0dd8cf14ba8957c5b,53,0,-1,-1,"Distance from home,Amount of alcohol present,Amount of physical activity,Amount of food present,Opportunity to socialize,Number of other people present,Amount of music,Indoors vs. outdoors,Duration","35 min away,A Moderate Amount,A Lot,A Moderate Amount,A Little,3 people,None,All Indoors,40 minutes","50 min away,None,None,None,A Lot,10 people,A Moderate Amount,All Outdoors,60 minutes",0,,2114,2022-06-27 19:09:48,196512
5ff0f1b0dd8cf14ba8957c5b,ma_choice_v4_social_pilot1,5ff0f1b0dd8cf14ba8957c5b,54,0,-1,-1,"Amount of music,Opportunity to socialize,Amount of food present,Number of other people present,Duration,Distance from home,Indoors vs. outdoors,Amount of physical activity,Amount of alcohol present","A Little,A Moderate Amount,A Moderate Amount,8 people,50 minutes,50 min away,Half Indoors and Half Outdoors,A Lot,A Moderate Amount","A Lot,None,None,5 people,70 minutes,15 min away,All Indoors,A Little,None",0,,2956,2022-06-27 19:09:52,196533
5ff0f1b0dd8cf14ba8957c5b,ma_choice_v4_social_pilot1,5ff0f1b0dd8cf14ba8957c5b,55,0,-1,-1,"Opportunity to socialize,Duration,Number of other people present,Amount of music,Indoors vs. outdoors,Amount of food present,Amount of physical activity,Distance from home,Amount of alcohol present","A Lot,40 minutes,5 people,A Lot,All Indoors,None,A Little,15 min away,A Lot","None,70 minutes,9 people,None,Mostly Outdoors,A Lot,A Lot,35 min away,None",0,,2477,2022-06-27 19:09:56,196543
5ff0f1b0dd8cf14ba8957c5b,ma_choice_v4_social_pilot1,5ff0f1b0dd8cf14ba8957c5b,56,0,-1,-1,"Amount of food present,Amount of alcohol present,Opportunity to socialize,Indoors vs. outdoors,Number of other people present,Distance from home,Amount of music,Amount of physical activity,Duration","A Little,None,None,Mostly Indoors,3 people,35 min away,A Moderate Amount,A Little,60 minutes","A Lot,A Lot,A Lot,Mostly Outdoors,9 people,15 min away,None,A Lot,30 minutes",1,,2792,2022-06-27 19:10:00,196564
5ff0f1b0dd8cf14ba8957c5b,ma_choice_v4_social_pilot1,5ff0f1b0dd8cf14ba8957c5b,57,0,-1,-1,"Distance from home,Amount of alcohol present,Amount of music,Amount of food present,Amount of physical activity,Opportunity to socialize,Duration,Number of other people present,Indoors vs. outdoors","35 min away,None,A Lot,A Little,None,None,80 minutes,8 people,Mostly Outdoors","20 min away,A Lot,None,A Lot,A Lot,A Lot,60 minutes,4 people,Mostly Indoors",1,,2013,2022-06-27 19:10:03,196580
5ff0f1b0dd8cf14ba8957c5b,ma_choice_v4_social_pilot1,5ff0f1b0dd8cf14ba8957c5b,58,0,-1,-1,"Opportunity to socialize,Indoors vs. outdoors,Amount of music,Amount of physical activity,Number of other people present,Amount of alcohol present,Distance from home,Amount of food present,Duration","A Moderate Amount,All Outdoors,None,A Moderate Amount,11 people,None,45 min away,A Moderate Amount,70 minutes","None,Half Indoors and Half Outdoors,A Lot,None,9 people,A Moderate Amount,10 min away,None,40 minutes",1,,2650,2022-06-27 19:10:06,196598
5ff0f1b0dd8cf14ba8957c5b,ma_choice_v4_social_pilot1,5ff0f1b0dd8cf14ba8957c5b,59,0,-1,-1,"Amount of music,Number of other people present,Distance from home,Amount of food present,Opportunity to socialize,Indoors vs. outdoors,Duration,Amount of physical activity,Amount of alcohol present","A Moderate Amount,8 people,15 min away,A Lot,None,Mostly Outdoors,60 minutes,A Moderate Amount,None","None,4 people,55 min away,None,A Lot,Mostly Indoors,80 minutes,None,A Lot",1,,2439,2022-06-27 19:10:10,196612
62b9ac142a506642b5e0d9fb,ma_choice_v4_social_pilot1,62b9ac142a506642b5e0d9fb,3,0,-1,-1,"Amount of physical activity,Amount of food present,Duration,Amount of alcohol present,Opportunity to socialize,Distance from home,Amount of music,Number of other people present,Indoors vs. outdoors","None,None,70 minutes,A Moderate Amount,A Moderate Amount,50 min away,A Lot,4 people,Mostly Indoors","A Moderate Amount,A Lot,50 minutes,None,None,10 min away,A Little,11 people,Mostly Outdoors",1,,24841,2022-06-27 19:10:11,196617
5ff0f1b0dd8cf14ba8957c5b,ma_choice_v4_social_pilot1,5ff0f1b0dd8cf14ba8957c5b,60,0,-1,-1,"Duration,Amount of music,Amount of food present,Number of other people present,Amount of alcohol present,Indoors vs. outdoors,Distance from home,Amount of physical activity,Opportunity to socialize","40 minutes,A Moderate Amount,None,6 people,None,All Indoors,50 min away,A Lot,A Moderate Amount","70 minutes,None,A Moderate Amount,11 people,A Moderate Amount,Mostly Outdoors,40 min away,A Little,None",1,,2958,2022-06-27 19:10:14,196624
5ff0f1b0dd8cf14ba8957c5b,ma_choice_v4_social_pilot1,5ff0f1b0dd8cf14ba8957c5b,61,0,-1,-1,"Amount of alcohol present,Indoors vs. outdoors,Amount of food present,Amount of music,Opportunity to socialize,Amount of physical activity,Distance from home,Duration,Number of other people present","A Little,Mostly Indoors,A Moderate Amount,A Moderate Amount,A Little,A Moderate Amount,10 min away,40 minutes,8 people","A Lot,Mostly Outdoors,None,None,A Lot,None,20 min away,60 minutes,6 people",1,,4576,2022-06-27 19:10:19,196656
5ff0f1b0dd8cf14ba8957c5b,ma_choice_v4_social_pilot1,5ff0f1b0dd8cf14ba8957c5b,62,0,-1,-1,"Duration,Number of other people present,Distance from home,Amount of alcohol present,Opportunity to socialize,Indoors vs. outdoors,Amount of food present,Amount of music,Amount of physical activity","30 minutes,8 people,15 min away,A Little,A Lot,Mostly Indoors,None,A Moderate Amount,None","70 minutes,5 people,45 min away,A Lot,A Little,All Outdoors,A Lot,None,A Moderate Amount",1,,2423,2022-06-27 19:10:23,196670
5ff0f1b0dd8cf14ba8957c5b,ma_choice_v4_social_pilot1,5ff0f1b0dd8cf14ba8957c5b,63,0,-1,-1,"Amount of alcohol present,Number of other people present,Duration,Opportunity to socialize,Amount of food present,Amount of music,Indoors vs. outdoors,Amount of physical activity,Distance from home","A Little,6 people,60 minutes,None,None,A Lot,Mostly Indoors,A Moderate Amount,40 min away","A Lot,11 people,80 minutes,A Lot,A Lot,None,Mostly Outdoors,None,55 min away",1,,1756,2022-06-27 19:10:26,196679
5ff0f1b0dd8cf14ba8957c5b,ma_choice_v4_social_pilot1,5ff0f1b0dd8cf14ba8957c5b,64,0,-1,-1,"Amount of physical activity,Amount of food present,Number of other people present,Distance from home,Amount of alcohol present,Duration,Indoors vs. outdoors,Opportunity to socialize,Amount of music","A Moderate Amount,A Little,7 people,35 min away,A Lot,80 minutes,All Indoors,A Moderate Amount,None","None,A Lot,10 people,20 min away,A Little,40 minutes,Half Indoors and Half Outdoors,None,A Moderate Amount",0,,3948,2022-06-27 19:10:30,196703
5ff0f1b0dd8cf14ba8957c5b,ma_choice_v4_social_pilot1,5ff0f1b0dd8cf14ba8957c5b,65,0,-1,-1,"Indoors vs. outdoors,Amount of physical activity,Distance from home,Number of other people present,Opportunity to socialize,Amount of food present,Duration,Amount of alcohol present,Amount of music","Mostly Indoors,A Lot,15 min away,10 people,A Moderate Amount,A Lot,40 minutes,A Moderate Amount,A Little","All Outdoors,A Little,5 min away,8 people,None,None,80 minutes,None,A Lot",0,,3125,2022-06-27 19:10:35,196720
5ff0f1b0dd8cf14ba8957c5b,ma_choice_v4_social_pilot1,5ff0f1b0dd8cf14ba8957c5b,66,0,-1,-1,"Amount of music,Amount of physical activity,Number of other people present,Amount of food present,Duration,Distance from home,Amount of alcohol present,Indoors vs. outdoors,Opportunity to socialize","A Moderate Amount,A Moderate Amount,11 people,None,50 minutes,50 min away,A Little,All Indoors,A Lot","None,None,3 people,A Lot,90 minutes,35 min away,A Lot,Mostly Outdoors,A Little",1,,2114,2022-06-27 19:10:38,196733
62b9ac142a506642b5e0d9fb,ma_choice_v4_social_pilot1,62b9ac142a506642b5e0d9fb,4,0,-1,-1,"Amount of food present,Number of other people present,Distance from home,Amount of music,Duration,Opportunity to socialize,Amount of physical activity,Amount of alcohol present,Indoors vs. outdoors","A Lot,9 people,20 min away,A Moderate Amount,50 minutes,A Lot,A Moderate Amount,A Moderate Amount,All Indoors","None,5 people,50 min away,None,80 minutes,A Little,None,None,Mostly Outdoors",0,,27069,2022-06-27 19:10:39,196738
5ff0f1b0dd8cf14ba8957c5b,ma_choice_v4_social_pilot1,5ff0f1b0dd8cf14ba8957c5b,67,0,-1,-1,"Amount of alcohol present,Amount of music,Indoors vs. outdoors,Amount of food present,Distance from home,Duration,Number of other people present,Opportunity to socialize,Amount of physical activity","A Little,A Moderate Amount,All Indoors,A Little,20 min away,80 minutes,4 people,None,A Moderate Amount","A Lot,None,Half Indoors and Half Outdoors,A Lot,50 min away,60 minutes,11 people,A Moderate Amount,None",1,,4791,2022-06-27 19:10:44,196757
5ff0f1b0dd8cf14ba8957c5b,ma_choice_v4_social_pilot1,5ff0f1b0dd8cf14ba8957c5b,68,0,-1,-1,"Distance from home,Number of other people present,Indoors vs. outdoors,Duration,Opportunity to socialize,Amount of music,Amount of food present,Amount of physical activity,Amount of alcohol present","20 min away,7 people,All Indoors,40 minutes,A Lot,A Moderate Amount,A Little,None,A Moderate Amount","45 min away,10 people,Half Indoors and Half Outdoors,70 minutes,A Little,None,A Lot,A Moderate Amount,None",0,,2886,2022-06-27 19:10:47,196776
5ff0f1b0dd8cf14ba8957c5b,ma_choice_v4_social_pilot1,5ff0f1b0dd8cf14ba8957c5b,69,0,-1,-1,"Amount of alcohol present,Number of other people present,Duration,Amount of music,Indoors vs. outdoors,Amount of physical activity,Amount of food present,Distance from home,Opportunity to socialize","None,4 people,60 minutes,A Moderate Amount,Half Indoors and Half Outdoors,A Moderate Amount,None,30 min away,A Lot","A Lot,7 people,40 minutes,None,All Outdoors,None,A Moderate Amount,20 min away,None",1,,3687,2022-06-27 19:10:52,196799
5ff0f1b0dd8cf14ba8957c5b,ma_choice_v4_social_pilot1,5ff0f1b0dd8cf14ba8957c5b,70,0,-1,-1,"Opportunity to socialize,Amount of food present,Indoors vs. outdoors,Distance from home,Amount of physical activity,Amount of music,Duration,Number of other people present,Amount of alcohol present","None,A Moderate Amount,All Outdoors,20 min away,None,A Moderate Amount,80 minutes,7 people,A Lot","A Moderate Amount,None,Half Indoors and Half Outdoors,55 min away,A Lot,None,60 minutes,10 people,None",0,,3858,2022-06-27 19:10:57,196817
5ff0f1b0dd8cf14ba8957c5b,ma_choice_v4_social_pilot1,5ff0f1b0dd8cf14ba8957c5b,71,0,-1,-1,"Amount of physical activity,Indoors vs. outdoors,Duration,Distance from home,Amount of music,Amount of food present,Amount of alcohol present,Opportunity to socialize,Number of other people present","A Little,Mostly Outdoors,80 minutes,20 min away,A Lot,A Little,A Little,None,5 people","A Lot,All Indoors,60 minutes,50 min away,A Little,A Lot,A Lot,A Moderate Amount,3 people",1,,2943,2022-06-27 19:11:01,196839
62b9ac142a506642b5e0d9fb,ma_choice_v4_social_pilot1,62b9ac142a506642b5e0d9fb,5,0,-1,-1,"Amount of food present,Number of other people present,Distance from home,Amount of physical activity,Amount of music,Duration,Opportunity to socialize,Amount of alcohol present,Indoors vs. outdoors","A Moderate Amount,9 people,10 min away,None,A Moderate Amount,50 minutes,A Little,None,All Indoors","None,4 people,60 min away,A Moderate Amount,None,70 minutes,A Lot,A Lot,All Outdoors",0,,23961,2022-06-27 19:11:04,196845
5ff0f1b0dd8cf14ba8957c5b,ma_choice_v4_social_pilot1,5ff0f1b0dd8cf14ba8957c5b,72,0,-1,-1,"Opportunity to socialize,Indoors vs. outdoors,Amount of physical activity,Duration,Distance from home,Amount of music,Amount of food present,Number of other people present,Amount of alcohol present","None,All Indoors,None,80 minutes,15 min away,A Lot,A Little,11 people,A Little","A Moderate Amount,Mostly Outdoors,A Lot,50 minutes,30 min away,None,A Lot,7 people,A Lot",1,,2785,2022-06-27 19:11:05,196851
5ff0f1b0dd8cf14ba8957c5b,ma_choice_v4_social_pilot1,5ff0f1b0dd8cf14ba8957c5b,73,0,-1,-1,"Distance from home,Amount of music,Opportunity to socialize,Indoors vs. outdoors,Amount of food present,Number of other people present,Amount of physical activity,Amount of alcohol present,Duration","10 min away,A Lot,None,Half Indoors and Half Outdoors,A Lot,10 people,A Little,A Lot,30 minutes","50 min away,A Little,A Lot,All Indoors,A Little,8 people,A Lot,None,70 minutes",0,,1765,2022-06-27 19:11:07,196865
5ff0f1b0dd8cf14ba8957c5b,ma_choice_v4_social_pilot1,5ff0f1b0dd8cf14ba8957c5b,74,0,-1,-1,"Amount of alcohol present,Opportunity to socialize,Amount of physical activity,Indoors vs. outdoors,Number of other people present,Amount of music,Distance from home,Duration,Amount of food present","A Moderate Amount,A Little,A Little,Half Indoors and Half Outdoors,3 people,A Moderate Amount,50 min away,60 minutes,A Moderate Amount","None,A Lot,A Lot,All Indoors,6 people,None,15 min away,40 minutes,None",0,,2962,2022-06-27 19:11:11,196884
62b9ac142a506642b5e0d9fb,ma_choice_v4_social_pilot1,62b9ac142a506642b5e0d9fb,6,0,-1,-1,"Duration,Indoors vs. outdoors,Distance from home,Amount of alcohol present,Amount of music,Opportunity to socialize,Number of other people present,Amount of food present,Amount of physical activity","70 minutes,All Outdoors,25 min away,A Moderate Amount,None,A Lot,4 people,A Little,None","50 minutes,Half Indoors and Half Outdoors,5 min away,None,A Moderate Amount,A Little,11 people,A Lot,A Lot",1,,10042,2022-06-27 19:11:15,196903
5ce6fbd9a76bf00019cfd467,ma_choice_v4_social_pilot1,5ce6fbd9a76bf00019cfd467,0,1,-1,-1,"Amount of alcohol present,Duration,Amount of food present,Distance from home,Number of other people present,Amount of physical activity,Amount of music,Opportunity to socialize,Indoors vs. outdoors","A Moderate Amount,80 minutes,A Little,30 min away,4 people,None,A Lot,A Moderate Amount,Mostly Outdoors","None,40 minutes,A Lot,20 min away,6 people,A Moderate Amount,A Little,None,All Indoors",0,,11480,2022-06-27 19:11:22,196929
62b9ac142a506642b5e0d9fb,ma_choice_v4_social_pilot1,62b9ac142a506642b5e0d9fb,7,0,-1,-1,"Number of other people present,Amount of alcohol present,Distance from home,Amount of physical activity,Duration,Amount of food present,Amount of music,Opportunity to socialize,Indoors vs. outdoors","3 people,None,35 min away,A Lot,50 minutes,A Lot,A Little,A Moderate Amount,All Outdoors","9 people,A Moderate Amount,25 min away,A Little,80 minutes,None,A Lot,None,Mostly Indoors",1,,20140,2022-06-27 19:11:36,196986
5ff0f1b0dd8cf14ba8957c5b,ma_choice_v4_social_pilot1,5ff0f1b0dd8cf14ba8957c5b,75,0,-1,-1,"Amount of physical activity,Amount of alcohol present,Duration,Indoors vs. outdoors,Amount of music,Amount of food present,Distance from home,Opportunity to socialize,Number of other people present","None,None,40 minutes,Mostly Indoors,None,A Lot,45 min away,A Little,9 people","A Lot,A Lot,80 minutes,Mostly Outdoors,A Lot,None,10 min away,A Lot,7 people",1,,27478,2022-06-27 19:11:40,197005
5ce6fbd9a76bf00019cfd467,ma_choice_v4_social_pilot1,5ce6fbd9a76bf00019cfd467,1,1,-1,-1,"Duration,Amount of physical activity,Amount of music,Amount of food present,Number of other people present,Amount of alcohol present,Opportunity to socialize,Distance from home,Indoors vs. outdoors","70 minutes,None,A Moderate Amount,None,9 people,None,A Moderate Amount,45 min away,All Indoors","30 minutes,A Moderate Amount,None,A Lot,5 people,A Lot,None,30 min away,All Outdoors",1,,18996,2022-06-27 19:11:42,197011
5ff0f1b0dd8cf14ba8957c5b,ma_choice_v4_social_pilot1,5ff0f1b0dd8cf14ba8957c5b,76,0,-1,-1,"Amount of music,Amount of food present,Amount of alcohol present,Opportunity to socialize,Amount of physical activity,Duration,Number of other people present,Distance from home,Indoors vs. outdoors","A Little,A Moderate Amount,A Moderate Amount,A Little,None,70 minutes,7 people,20 min away,Mostly Outdoors","A Lot,None,None,A Lot,A Lot,30 minutes,3 people,45 min away,All Indoors",0,,2135,2022-06-27 19:11:43,197019
5ff0f1b0dd8cf14ba8957c5b,ma_choice_v4_social_pilot1,5ff0f1b0dd8cf14ba8957c5b,77,0,-1,-1,"Amount of food present,Distance from home,Number of other people present,Amount of physical activity,Duration,Amount of alcohol present,Opportunity to socialize,Indoors vs. outdoors,Amount of music","A Lot,10 min away,9 people,A Lot,60 minutes,A Lot,None,Mostly Outdoors,A Moderate Amount","A Little,20 min away,3 people,A Little,80 minutes,None,A Lot,All Indoors,None",0,,2684,2022-06-27 19:11:47,197032
62b9ac142a506642b5e0d9fb,ma_choice_v4_social_pilot1,62b9ac142a506642b5e0d9fb,8,0,-1,-1,"Duration,Indoors vs. outdoors,Number of other people present,Amount of physical activity,Amount of alcohol present,Amount of food present,Opportunity to socialize,Amount of music,Distance from home","80 minutes,Half Indoors and Half Outdoors,11 people,A Little,A Moderate Amount,A Moderate Amount,A Moderate Amount,A Lot,35 min away","40 minutes,All Outdoors,6 people,A Lot,None,None,None,A Little,55 min away",0,,11348,2022-06-27 19:11:48,197041
5ff0f1b0dd8cf14ba8957c5b,ma_choice_v4_social_pilot1,5ff0f1b0dd8cf14ba8957c5b,78,0,-1,-1,"Opportunity to socialize,Distance from home,Amount of music,Indoors vs. outdoors,Amount of alcohol present,Duration,Amount of food present,Number of other people present,Amount of physical activity","A Moderate Amount,35 min away,A Little,Half Indoors and Half Outdoors,A Moderate Amount,40 minutes,None,5 people,A Moderate Amount","None,50 min away,A Lot,All Indoors,None,60 minutes,A Lot,10 people,None",0,,2335,2022-06-27 19:11:50,197050
5ff0f1b0dd8cf14ba8957c5b,ma_choice_v4_social_pilot1,5ff0f1b0dd8cf14ba8957c5b,79,0,-1,-1,"Amount of food present,Amount of alcohol present,Opportunity to socialize,Amount of music,Duration,Distance from home,Amount of physical activity,Number of other people present,Indoors vs. outdoors","None,A Moderate Amount,A Lot,A Lot,80 minutes,40 min away,A Little,9 people,Half Indoors and Half Outdoors","A Moderate Amount,None,None,None,50 minutes,10 min away,A Lot,7 people,All Indoors",0,,2802,2022-06-27 19:11:54,197063
5ce6fbd9a76bf00019cfd467,ma_choice_v4_social_pilot1,5ce6fbd9a76bf00019cfd467,2,1,-1,-1,"Opportunity to socialize,Distance from home,Amount of music,Amount of food present,Amount of physical activity,Duration,Number of other people present,Indoors vs. outdoors,Amount of alcohol present","A Lot,50 min away,None,A Little,A Little,60 minutes,6 people,Half Indoors and Half Outdoors,None","A Little,20 min away,A Moderate Amount,A Lot,A Lot,80 minutes,3 people,All Outdoors,A Moderate Amount",1,,11711,2022-06-27 19:11:54,197064
5ff0f1b0dd8cf14ba8957c5b,ma_choice_v4_social_pilot1,5ff0f1b0dd8cf14ba8957c5b,80,0,-1,-1,"Duration,Distance from home,Number of other people present,Opportunity to socialize,Amount of alcohol present,Indoors vs. outdoors,Amount of physical activity,Amount of food present,Amount of music","90 minutes,40 min away,10 people,A Lot,A Lot,All Outdoors,A Little,A Lot,None","40 minutes,25 min away,5 people,None,A Little,All Indoors,A Lot,A Little,A Lot",0,,3717,2022-06-27 19:11:59,197080
5ce6fbd9a76bf00019cfd467,ma_choice_v4_social_pilot1,5ce6fbd9a76bf00019cfd467,3,1,-1,-1,"Amount of food present,Duration,Amount of physical activity,Amount of music,Indoors vs. outdoors,Amount of alcohol present,Opportunity to socialize,Number of other people present,Distance from home","None,60 minutes,None,A Lot,All Outdoors,A Lot,A Lot,11 people,25 min away","A Moderate Amount,40 minutes,A Lot,A Little,All Indoors,None,A Little,7 people,60 min away",0,,7708,2022-06-27 19:12:03,197097
5ff0f1b0dd8cf14ba8957c5b,ma_choice_v4_social_pilot1,5ff0f1b0dd8cf14ba8957c5b,81,0,-1,-1,"Amount of alcohol present,Number of other people present,Duration,Amount of physical activity,Opportunity to socialize,Amount of music,Amount of food present,Distance from home,Indoors vs. outdoors","A Little,11 people,60 minutes,A Little,A Little,None,A Moderate Amount,15 min away,Mostly Outdoors","A Lot,7 people,40 minutes,A Lot,A Lot,A Moderate Amount,None,55 min away,All Indoors",1,,4628,2022-06-27 19:12:04,197103
62b9ac142a506642b5e0d9fb,ma_choice_v4_social_pilot1,62b9ac142a506642b5e0d9fb,9,0,-1,-1,"Amount of music,Opportunity to socialize,Amount of alcohol present,Distance from home,Amount of physical activity,Number of other people present,Duration,Amount of food present,Indoors vs. outdoors","A Lot,A Moderate Amount,None,55 min away,A Little,10 people,70 minutes,A Moderate Amount,Mostly Outdoors","None,None,A Moderate Amount,30 min away,A Lot,4 people,30 minutes,None,All Indoors",1,,17032,2022-06-27 19:12:06,197114
5ff0f1b0dd8cf14ba8957c5b,ma_choice_v4_social_pilot1,5ff0f1b0dd8cf14ba8957c5b,82,0,-1,-1,"Indoors vs. outdoors,Amount of physical activity,Amount of alcohol present,Distance from home,Number of other people present,Opportunity to socialize,Amount of food present,Amount of music,Duration","Mostly Outdoors,A Lot,A Lot,50 min away,4 people,A Lot,None,A Lot,90 minutes","All Indoors,None,None,15 min away,8 people,A Little,A Lot,None,40 minutes",0,,2655,2022-06-27 19:12:08,197118
5ff0f1b0dd8cf14ba8957c5b,ma_choice_v4_social_pilot1,5ff0f1b0dd8cf14ba8957c5b,83,0,-1,-1,"Amount of food present,Distance from home,Amount of physical activity,Duration,Amount of music,Number of other people present,Amount of alcohol present,Opportunity to socialize,Indoors vs. outdoors","A Moderate Amount,50 min away,A Lot,70 minutes,A Moderate Amount,3 people,None,A Moderate Amount,All Indoors","None,15 min away,A Little,90 minutes,None,6 people,A Moderate Amount,None,Half Indoors and Half Outdoors",1,,3415,2022-06-27 19:12:12,197129
5ff0f1b0dd8cf14ba8957c5b,ma_choice_v4_social_pilot1,5ff0f1b0dd8cf14ba8957c5b,84,0,-1,-1,"Amount of physical activity,Amount of food present,Duration,Amount of alcohol present,Opportunity to socialize,Distance from home,Number of other people present,Indoors vs. outdoors,Amount of music","None,A Moderate Amount,80 minutes,None,A Lot,55 min away,3 people,Half Indoors and Half Outdoors,A Little","A Lot,None,40 minutes,A Moderate Amount,None,25 min away,6 people,All Outdoors,A Lot",1,,3147,2022-06-27 19:12:16,197152
5ce6fbd9a76bf00019cfd467,ma_choice_v4_social_pilot1,5ce6fbd9a76bf00019cfd467,4,1,-1,-1,"Amount of physical activity,Distance from home,Opportunity to socialize,Number of other people present,Amount of food present,Indoors vs. outdoors,Amount of alcohol present,Amount of music,Duration","A Little,40 min away,A Lot,9 people,A Lot,Mostly Outdoors,None,None,80 minutes","A Lot,10 min away,None,3 people,None,All Indoors,A Moderate Amount,A Lot,40 minutes",1,,14623,2022-06-27 19:12:19,197158
5ff0f1b0dd8cf14ba8957c5b,ma_choice_v4_social_pilot1,5ff0f1b0dd8cf14ba8957c5b,85,0,-1,-1,"Amount of alcohol present,Amount of physical activity,Amount of music,Amount of food present,Opportunity to socialize,Indoors vs. outdoors,Number of other people present,Duration,Distance from home","A Moderate Amount,A Little,A Moderate Amount,None,A Little,All Outdoors,8 people,70 minutes,15 min away","None,A Lot,None,A Moderate Amount,A Lot,All Indoors,10 people,90 minutes,30 min away",0,,1430,2022-06-27 19:12:19,197160
5ff0f1b0dd8cf14ba8957c5b,ma_choice_v4_social_pilot1,5ff0f1b0dd8cf14ba8957c5b,86,0,-1,-1,"Opportunity to socialize,Duration,Amount of alcohol present,Amount of music,Number of other people present,Indoors vs. outdoors,Distance from home,Amount of food present,Amount of physical activity","A Lot,50 minutes,None,A Lot,5 people,All Indoors,50 min away,A Moderate Amount,A Lot","None,70 minutes,A Moderate Amount,None,9 people,All Outdoors,15 min away,None,None",1,,4698,2022-06-27 19:12:25,197186
5ce6fbd9a76bf00019cfd467,ma_choice_v4_social_pilot1,5ce6fbd9a76bf00019cfd467,5,1,-1,-1,"Distance from home,Amount of food present,Opportunity to socialize,Duration,Amount of alcohol present,Amount of music,Number of other people present,Amount of physical activity,Indoors vs. outdoors","15 min away,A Little,A Little,40 minutes,A Little,None,10 people,A Little,All Indoors","35 min away,A Lot,A Lot,60 minutes,A Lot,A Lot,6 people,A Lot,All Outdoors",1,,6813,2022-06-27 19:12:26,197199
5ff0f1b0dd8cf14ba8957c5b,ma_choice_v4_social_pilot1,5ff0f1b0dd8cf14ba8957c5b,87,0,-1,-1,"Number of other people present,Amount of music,Amount of food present,Amount of alcohol present,Indoors vs. outdoors,Distance from home,Duration,Opportunity to socialize,Amount of physical activity","8 people,A Little,A Moderate Amount,A Moderate Amount,All Indoors,40 min away,70 minutes,A Little,A Little","11 people,A Lot,None,None,Mostly Outdoors,10 min away,40 minutes,A Lot,A Lot",0,,2385,2022-06-27 19:12:28,197202
62b9ac142a506642b5e0d9fb,ma_choice_v4_social_pilot1,62b9ac142a506642b5e0d9fb,10,0,-1,-1,"Opportunity to socialize,Number of other people present,Amount of food present,Duration,Amount of alcohol present,Amount of physical activity,Indoors vs. outdoors,Distance from home,Amount of music","A Little,9 people,A Moderate Amount,40 minutes,None,A Moderate Amount,All Outdoors,25 min away,None","A Lot,11 people,None,70 minutes,A Lot,None,All Indoors,15 min away,A Moderate Amount",0,,22116,2022-06-27 19:12:29,197211
5ff0f1b0dd8cf14ba8957c5b,ma_choice_v4_social_pilot1,5ff0f1b0dd8cf14ba8957c5b,88,0,-1,-1,"Number of other people present,Amount of physical activity,Duration,Amount of food present,Amount of music,Amount of alcohol present,Indoors vs. outdoors,Distance from home,Opportunity to socialize","3 people,A Moderate Amount,40 minutes,None,A Little,A Moderate Amount,Mostly Indoors,15 min away,A Little","9 people,None,80 minutes,A Moderate Amount,A Lot,None,Mostly Outdoors,30 min away,A Lot",0,,1918,2022-06-27 19:12:31,197221
5ff0f1b0dd8cf14ba8957c5b,ma_choice_v4_social_pilot1,5ff0f1b0dd8cf14ba8957c5b,89,0,-1,-1,"Indoors vs. outdoors,Amount of physical activity,Amount of food present,Duration,Opportunity to socialize,Number of other people present,Distance from home,Amount of music,Amount of alcohol present","All Indoors,A Little,None,80 minutes,A Moderate Amount,11 people,20 min away,None,A Lot","Half Indoors and Half Outdoors,A Lot,A Moderate Amount,60 minutes,None,6 people,55 min away,A Moderate Amount,None",0,,2578,2022-06-27 19:12:35,197228
5ff0f1b0dd8cf14ba8957c5b,ma_choice_v4_social_pilot1,5ff0f1b0dd8cf14ba8957c5b,90,0,-1,-1,"Opportunity to socialize,Amount of music,Distance from home,Amount of food present,Amount of alcohol present,Indoors vs. outdoors,Duration,Amount of physical activity,Number of other people present","A Little,None,30 min away,None,A Little,Mostly Outdoors,70 minutes,A Lot,11 people","A Lot,A Lot,45 min away,A Moderate Amount,A Lot,All Indoors,90 minutes,A Little,4 people",1,,1980,2022-06-27 19:12:38,197238
5ce6fbd9a76bf00019cfd467,ma_choice_v4_social_pilot1,5ce6fbd9a76bf00019cfd467,6,1,-1,-1,"Number of other people present,Amount of music,Duration,Amount of food present,Amount of alcohol present,Opportunity to socialize,Distance from home,Amount of physical activity,Indoors vs. outdoors","3 people,A Moderate Amount,60 minutes,A Little,A Lot,A Lot,40 min away,A Little,All Outdoors","6 people,None,90 minutes,A Lot,A Little,None,55 min away,A Lot,Half Indoors and Half Outdoors",0,,13329,2022-06-27 19:12:41,197258
5ff0f1b0dd8cf14ba8957c5b,ma_choice_v4_social_pilot1,5ff0f1b0dd8cf14ba8957c5b,91,0,-1,-1,"Amount of music,Number of other people present,Duration,Amount of alcohol present,Indoors vs. outdoors,Amount of food present,Opportunity to socialize,Amount of physical activity,Distance from home","A Moderate Amount,3 people,80 minutes,A Little,Half Indoors and Half Outdoors,A Little,None,A Little,15 min away","None,11 people,40 minutes,A Lot,All Outdoors,A Lot,A Lot,A Lot,40 min away",1,,4420,2022-06-27 19:12:43,197267
5ff0f1b0dd8cf14ba8957c5b,ma_choice_v4_social_pilot1,5ff0f1b0dd8cf14ba8957c5b,92,0,-1,-1,"Amount of food present,Amount of music,Number of other people present,Amount of alcohol present,Opportunity to socialize,Duration,Distance from home,Amount of physical activity,Indoors vs. outdoors","A Moderate Amount,A Moderate Amount,8 people,A Little,A Little,50 minutes,30 min away,A Moderate Amount,Mostly Indoors","None,None,3 people,A Lot,A Lot,70 minutes,15 min away,None,All Outdoors",1,,2035,2022-06-27 19:12:46,197276
5ff0f1b0dd8cf14ba8957c5b,ma_choice_v4_social_pilot1,5ff0f1b0dd8cf14ba8957c5b,93,0,-1,-1,"Duration,Amount of physical activity,Indoors vs. outdoors,Number of other people present,Amount of food present,Distance from home,Amount of alcohol present,Amount of music,Opportunity to socialize","50 minutes,A Little,Half Indoors and Half Outdoors,5 people,None,10 min away,A Lot,A Lot,A Moderate Amount","90 minutes,A Lot,All Outdoors,8 people,A Lot,45 min away,None,A Little,None",0,,1909,2022-06-27 19:12:49,197286
62b9ac142a506642b5e0d9fb,ma_choice_v4_social_pilot1,62b9ac142a506642b5e0d9fb,11,0,-1,-1,"Amount of food present,Amount of physical activity,Amount of alcohol present,Distance from home,Opportunity to socialize,Amount of music,Duration,Indoors vs. outdoors,Number of other people present","None,A Moderate Amount,A Lot,40 min away,None,A Little,60 minutes,All Indoors,5 people","A Lot,None,A Little,55 min away,A Moderate Amount,A Lot,30 minutes,Mostly Outdoors,11 people",1,,20854,2022-06-27 19:12:51,197294
5ce6fbd9a76bf00019cfd467,ma_choice_v4_social_pilot1,5ce6fbd9a76bf00019cfd467,7,1,-1,-1,"Amount of food present,Duration,Amount of physical activity,Distance from home,Number of other people present,Amount of alcohol present,Indoors vs. outdoors,Opportunity to socialize,Amount of music","A Little,80 minutes,A Lot,10 min away,9 people,None,Mostly Indoors,A Little,A Little","A Lot,30 minutes,None,50 min away,4 people,A Lot,Mostly Outdoors,A Lot,A Lot",1,,10589,2022-06-27 19:12:52,197303
5ff0f1b0dd8cf14ba8957c5b,ma_choice_v4_social_pilot1,5ff0f1b0dd8cf14ba8957c5b,94,0,-1,-1,"Duration,Indoors vs. outdoors,Amount of music,Amount of alcohol present,Opportunity to socialize,Number of other people present,Amount of food present,Amount of physical activity,Distance from home","70 minutes,Half Indoors and Half Outdoors,A Little,A Moderate Amount,A Little,8 people,None,A Lot,35 min away","30 minutes,All Indoors,A Lot,None,A Lot,4 people,A Moderate Amount,A Little,15 min away",0,,3088,2022-06-27 19:12:53,197308
5ff0f1b0dd8cf14ba8957c5b,ma_choice_v4_social_pilot1,5ff0f1b0dd8cf14ba8957c5b,95,0,-1,-1,"Duration,Indoors vs. outdoors,Amount of music,Amount of food present,Number of other people present,Amount of physical activity,Distance from home,Opportunity to socialize,Amount of alcohol present","80 minutes,Mostly Indoors,A Lot,A Lot,5 people,A Little,5 min away,A Little,A Moderate Amount","60 minutes,All Outdoors,None,A Little,9 people,A Lot,25 min away,A Lot,None",0,,2118,2022-06-27 19:12:56,197321
5ff0f1b0dd8cf14ba8957c5b,ma_choice_v4_social_pilot1,5ff0f1b0dd8cf14ba8957c5b,96,0,-1,-1,"Amount of music,Amount of physical activity,Opportunity to socialize,Number of other people present,Distance from home,Duration,Amount of food present,Amount of alcohol present,Indoors vs. outdoors","A Little,None,A Lot,5 people,45 min away,40 minutes,A Little,A Moderate Amount,Mostly Outdoors","A Lot,A Moderate Amount,A Little,11 people,35 min away,70 minutes,A Lot,None,All Indoors",0,,1916,2022-06-27 19:12:59,197328
5ff0f1b0dd8cf14ba8957c5b,ma_choice_v4_social_pilot1,5ff0f1b0dd8cf14ba8957c5b,97,0,-1,-1,"Distance from home,Amount of physical activity,Duration,Amount of music,Indoors vs. outdoors,Amount of alcohol present,Opportunity to socialize,Number of other people present,Amount of food present","5 min away,None,50 minutes,A Lot,Mostly Indoors,A Lot,A Moderate Amount,10 people,A Little","55 min away,A Moderate Amount,70 minutes,A Little,All Outdoors,None,None,4 people,A Lot",0,,3210,2022-06-27 19:13:03,197339
62b9ac142a506642b5e0d9fb,ma_choice_v4_social_pilot1,62b9ac142a506642b5e0d9fb,12,0,-1,-1,"Amount of physical activity,Indoors vs. outdoors,Duration,Amount of music,Distance from home,Opportunity to socialize,Amount of food present,Number of other people present,Amount of alcohol present","A Little,Mostly Outdoors,90 minutes,None,50 min away,A Little,A Moderate Amount,9 people,None","A Lot,Mostly Indoors,40 minutes,A Lot,15 min away,A Lot,None,11 people,A Lot",1,,15973,2022-06-27 19:13:08,197365
5ce6fbd9a76bf00019cfd467,ma_choice_v4_social_pilot1,5ce6fbd9a76bf00019cfd467,8,1,-1,-1,"Distance from home,Amount of food present,Amount of music,Amount of physical activity,Opportunity to socialize,Number of other people present,Amount of alcohol present,Duration,Indoors vs. outdoors","25 min away,None,A Little,A Moderate Amount,A Little,4 people,A Moderate Amount,80 minutes,Half Indoors and Half Outdoors","50 min away,A Moderate Amount,A Lot,None,A Lot,10 people,None,40 minutes,All Outdoors",0,,16203,2022-06-27 19:13:10,197373
5ff0f1b0dd8cf14ba8957c5b,ma_choice_v4_social_pilot1,5ff0f1b0dd8cf14ba8957c5b,98,0,-1,-1,"Duration,Amount of food present,Amount of alcohol present,Indoors vs. outdoors,Distance from home,Amount of physical activity,Amount of music,Opportunity to socialize,Number of other people present","50 minutes,A Moderate Amount,A Little,All Outdoors,55 min away,A Lot,A Moderate Amount,A Moderate Amount,10 people","90 minutes,None,A Lot,Half Indoors and Half Outdoors,15 min away,A Little,None,None,8 people",1,,5447,2022-06-27 19:13:10,197374
5ff0f1b0dd8cf14ba8957c5b,ma_choice_v4_social_pilot1,5ff0f1b0dd8cf14ba8957c5b,99,0,-1,-1,"Amount of alcohol present,Distance from home,Amount of food present,Amount of music,Opportunity to socialize,Duration,Indoors vs. outdoors,Amount of physical activity,Number of other people present","A Lot,30 min away,A Moderate Amount,None,A Moderate Amount,90 minutes,All Indoors,None,7 people","None,40 min away,None,A Lot,None,70 minutes,All Outdoors,A Moderate Amount,3 people",0,,1690,2022-06-27 19:13:12,197382
5ce6fbd9a76bf00019cfd467,ma_choice_v4_social_pilot1,5ce6fbd9a76bf00019cfd467,9,1,-1,-1,"Amount of food present,Amount of physical activity,Number of other people present,Opportunity to socialize,Indoors vs. outdoors,Duration,Distance from home,Amount of alcohol present,Amount of music","A Moderate Amount,A Lot,8 people,None,Half Indoors and Half Outdoors,40 minutes,15 min away,A Moderate Amount,A Moderate Amount","None,A Little,6 people,A Lot,All Indoors,60 minutes,55 min away,None,None",0,,3299,2022-06-27 19:13:14,197387
5f849ae1da640812e4ec057c,ma_choice_v4_social_pilot1,5f849ae1da640812e4ec057c,0,1,-1,-1,"Amount of music,Amount of alcohol present,Opportunity to socialize,Number of other people present,Duration,Amount of food present,Indoors vs. outdoors,Amount of physical activity,Distance from home","A Little,A Little,None,7 people,40 minutes,A Little,Mostly Indoors,A Lot,30 min away","A Lot,A Lot,A Lot,4 people,60 minutes,A Lot,All Outdoors,A Little,45 min away",0,,11105,2022-06-27 19:13:29,197444
62b9ac142a506642b5e0d9fb,ma_choice_v4_social_pilot1,62b9ac142a506642b5e0d9fb,13,0,-1,-1,"Amount of physical activity,Opportunity to socialize,Amount of food present,Number of other people present,Amount of music,Duration,Indoors vs. outdoors,Amount of alcohol present,Distance from home","A Little,A Little,A Lot,11 people,None,40 minutes,All Indoors,None,30 min away","A Lot,A Lot,None,4 people,A Moderate Amount,80 minutes,Half Indoors and Half Outdoors,A Moderate Amount,50 min away",0,,25250,2022-06-27 19:13:35,197460
5f849ae1da640812e4ec057c,ma_choice_v4_social_pilot1,5f849ae1da640812e4ec057c,1,1,-1,-1,"Distance from home,Amount of alcohol present,Amount of food present,Amount of physical activity,Indoors vs. outdoors,Amount of music,Opportunity to socialize,Number of other people present,Duration","20 min away,A Moderate Amount,A Little,A Moderate Amount,Half Indoors and Half Outdoors,A Lot,A Lot,10 people,80 minutes","5 min away,None,A Lot,None,All Outdoors,A Little,None,8 people,40 minutes",1,,14694,2022-06-27 19:13:45,197498
5f849ae1da640812e4ec057c,ma_choice_v4_social_pilot1,5f849ae1da640812e4ec057c,2,1,-1,-1,"Amount of music,Amount of physical activity,Duration,Opportunity to socialize,Amount of food present,Indoors vs. outdoors,Number of other people present,Amount of alcohol present,Distance from home","A Moderate Amount,A Moderate Amount,60 minutes,A Little,A Little,Mostly Outdoors,11 people,None,30 min away","None,None,80 minutes,A Lot,A Lot,All Indoors,3 people,A Lot,15 min away",0,,9510,2022-06-27 19:13:55,197539
62b9ac142a506642b5e0d9fb,ma_choice_v4_social_pilot1,62b9ac142a506642b5e0d9fb,14,0,-1,-1,"Indoors vs. outdoors,Duration,Number of other people present,Amount of food present,Distance from home,Amount of alcohol present,Opportunity to socialize,Amount of physical activity,Amount of music","All Outdoors,50 minutes,4 people,None,30 min away,A Lot,A Little,None,A Moderate Amount","Half Indoors and Half Outdoors,80 minutes,11 people,A Moderate Amount,10 min away,A Little,A Lot,A Moderate Amount,None",1,,22263,2022-06-27 19:13:58,197552
5f849ae1da640812e4ec057c,ma_choice_v4_social_pilot1,5f849ae1da640812e4ec057c,3,1,-1,-1,"Distance from home,Amount of food present,Opportunity to socialize,Amount of alcohol present,Amount of physical activity,Duration,Amount of music,Number of other people present,Indoors vs. outdoors","15 min away,A Lot,None,None,A Moderate Amount,60 minutes,A Lot,11 people,Mostly Outdoors","35 min away,None,A Lot,A Moderate Amount,None,80 minutes,None,5 people,Mostly Indoors",0,,12599,2022-06-27 19:14:09,197587
62b9ac142a506642b5e0d9fb,ma_choice_v4_social_pilot1,62b9ac142a506642b5e0d9fb,15,0,-1,-1,"Amount of food present,Amount of music,Distance from home,Duration,Number of other people present,Amount of alcohol present,Indoors vs. outdoors,Opportunity to socialize,Amount of physical activity","A Moderate Amount,A Lot,10 min away,40 minutes,6 people,A Moderate Amount,All Outdoors,A Little,A Moderate Amount","None,A Little,40 min away,80 minutes,9 people,None,Half Indoors and Half Outdoors,A Lot,None",0,,11519,2022-06-27 19:14:10,197596
5c0ec45b05ed100001f7861e,ma_choice_v4_social_pilot1,5c0ec45b05ed100001f7861e,0,1,-1,-1,"Duration,Amount of music,Opportunity to socialize,Distance from home,Amount of food present,Indoors vs. outdoors,Number of other people present,Amount of physical activity,Amount of alcohol present","80 minutes,A Little,A Moderate Amount,30 min away,A Lot,Half Indoors and Half Outdoors,10 people,A Lot,None","50 minutes,A Lot,None,50 min away,A Little,All Indoors,5 people,A Little,A Moderate Amount",0,,31927,2022-06-27 19:14:17,197625
5f849ae1da640812e4ec057c,ma_choice_v4_social_pilot1,5f849ae1da640812e4ec057c,4,1,-1,-1,"Opportunity to socialize,Distance from home,Amount of physical activity,Duration,Indoors vs. outdoors,Number of other people present,Amount of food present,Amount of music,Amount of alcohol present","None,50 min away,A Moderate Amount,60 minutes,All Outdoors,3 people,A Moderate Amount,A Little,None","A Moderate Amount,15 min away,None,40 minutes,Half Indoors and Half Outdoors,11 people,None,A Lot,A Moderate Amount",1,,12186,2022-06-27 19:14:22,197646
62b9ac142a506642b5e0d9fb,ma_choice_v4_social_pilot1,62b9ac142a506642b5e0d9fb,16,0,-1,-1,"Indoors vs. outdoors,Distance from home,Amount of music,Amount of alcohol present,Amount of physical activity,Duration,Number of other people present,Amount of food present,Opportunity to socialize","All Indoors,35 min away,A Little,A Moderate Amount,None,90 minutes,4 people,None,A Little","Mostly Outdoors,5 min away,A Lot,None,A Moderate Amount,30 minutes,6 people,A Lot,A Lot",1,,11828,2022-06-27 19:14:23,197651
5f849ae1da640812e4ec057c,ma_choice_v4_social_pilot1,5f849ae1da640812e4ec057c,5,1,-1,-1,"Distance from home,Duration,Opportunity to socialize,Number of other people present,Amount of food present,Amount of music,Indoors vs. outdoors,Amount of alcohol present,Amount of physical activity","50 min away,80 minutes,A Moderate Amount,7 people,A Little,A Moderate Amount,Half Indoors and Half Outdoors,None,A Little","40 min away,60 minutes,None,3 people,A Lot,None,All Outdoors,A Moderate Amount,A Lot",1,,9882,2022-06-27 19:14:33,197687
5c0ec45b05ed100001f7861e,ma_choice_v4_social_pilot1,5c0ec45b05ed100001f7861e,1,1,-1,-1,"Amount of music,Amount of food present,Number of other people present,Duration,Amount of alcohol present,Opportunity to socialize,Distance from home,Indoors vs. outdoors,Amount of physical activity","None,A Lot,9 people,50 minutes,A Lot,A Little,35 min away,All Indoors,A Lot","A Lot,A Little,11 people,70 minutes,A Little,A Lot,25 min away,Mostly Outdoors,None",0,,20870,2022-06-27 19:14:39,197703
5f849ae1da640812e4ec057c,ma_choice_v4_social_pilot1,5f849ae1da640812e4ec057c,6,1,-1,-1,"Amount of physical activity,Opportunity to socialize,Duration,Indoors vs. outdoors,Amount of food present,Number of other people present,Amount of alcohol present,Distance from home,Amount of music","A Lot,A Moderate Amount,40 minutes,Mostly Outdoors,A Lot,9 people,A Lot,10 min away,A Lot","A Little,None,70 minutes,Mostly Indoors,A Little,5 people,None,40 min away,None",0,,9116,2022-06-27 19:14:43,197722
62b9ac142a506642b5e0d9fb,ma_choice_v4_social_pilot1,62b9ac142a506642b5e0d9fb,17,0,-1,-1,"Amount of physical activity,Distance from home,Opportunity to socialize,Duration,Amount of food present,Amount of alcohol present,Number of other people present,Amount of music,Indoors vs. outdoors","A Little,35 min away,A Lot,80 minutes,A Little,A Little,11 people,A Little,Half Indoors and Half Outdoors","A Lot,55 min away,A Little,30 minutes,A Lot,A Lot,9 people,A Lot,All Outdoors",0,,24655,2022-06-27 19:14:49,197743
5c0ec45b05ed100001f7861e,ma_choice_v4_social_pilot1,5c0ec45b05ed100001f7861e,2,1,-1,-1,"Amount of alcohol present,Duration,Distance from home,Opportunity to socialize,Amount of music,Amount of physical activity,Number of other people present,Amount of food present,Indoors vs. outdoors","A Lot,70 minutes,30 min away,A Little,None,A Little,8 people,A Little,Mostly Outdoors","None,30 minutes,45 min away,A Lot,A Lot,A Lot,6 people,A Lot,Mostly Indoors",0,,11263,2022-06-27 19:14:51,197751
5f849ae1da640812e4ec057c,ma_choice_v4_social_pilot1,5f849ae1da640812e4ec057c,7,1,-1,-1,"Amount of food present,Duration,Distance from home,Amount of alcohol present,Opportunity to socialize,Amount of music,Number of other people present,Amount of physical activity,Indoors vs. outdoors","A Little,40 minutes,45 min away,A Moderate Amount,A Moderate Amount,A Moderate Amount,7 people,A Little,All Outdoors","A Lot,60 minutes,15 min away,None,None,None,3 people,A Lot,All Indoors",1,,9103,2022-06-27 19:14:53,197758
5c0ec45b05ed100001f7861e,ma_choice_v4_social_pilot1,5c0ec45b05ed100001f7861e,3,1,-1,-1,"Amount of physical activity,Number of other people present,Duration,Amount of food present,Opportunity to socialize,Indoors vs. outdoors,Amount of alcohol present,Distance from home,Amount of music","A Little,9 people,90 minutes,A Little,A Little,All Outdoors,A Little,50 min away,A Little","A Lot,11 people,40 minutes,A Lot,A Lot,All Indoors,A Lot,20 min away,A Lot",0,,5634,2022-06-27 19:14:58,197779
5f849ae1da640812e4ec057c,ma_choice_v4_social_pilot1,5f849ae1da640812e4ec057c,8,1,-1,-1,"Amount of food present,Amount of alcohol present,Duration,Opportunity to socialize,Number of other people present,Indoors vs. outdoors,Amount of physical activity,Distance from home,Amount of music","A Little,A Lot,30 minutes,None,11 people,All Indoors,A Moderate Amount,10 min away,A Little","A Lot,None,70 minutes,A Moderate Amount,5 people,All Outdoors,None,30 min away,A Lot",0,,8682,2022-06-27 19:15:03,197798
5c0ec45b05ed100001f7861e,ma_choice_v4_social_pilot1,5c0ec45b05ed100001f7861e,4,1,-1,-1,"Indoors vs. outdoors,Amount of food present,Amount of physical activity,Number of other people present,Amount of music,Duration,Amount of alcohol present,Opportunity to socialize,Distance from home","Mostly Indoors,A Little,A Lot,11 people,A Moderate Amount,80 minutes,A Little,None,10 min away","Mostly Outdoors,A Lot,None,5 people,None,40 minutes,A Lot,A Moderate Amount,55 min away",0,,12039,2022-06-27 19:15:11,197824
5f849ae1da640812e4ec057c,ma_choice_v4_social_pilot1,5f849ae1da640812e4ec057c,9,1,-1,-1,"Amount of food present,Amount of alcohol present,Amount of physical activity,Number of other people present,Duration,Opportunity to socialize,Amount of music,Distance from home,Indoors vs. outdoors","A Moderate Amount,A Lot,A Lot,5 people,60 minutes,None,A Moderate Amount,30 min away,Mostly Outdoors","None,A Little,A Little,7 people,30 minutes,A Moderate Amount,None,40 min away,Mostly Indoors",1,,13525,2022-06-27 19:15:17,197861
6172edcd801d608b50e9dda0,ma_choice_v4_social_pilot1,6172edcd801d608b50e9dda0,0,1,-1,-1,"Amount of music,Distance from home,Number of other people present,Opportunity to socialize,Amount of food present,Indoors vs. outdoors,Duration,Amount of alcohol present,Amount of physical activity","A Lot,50 min away,7 people,A Little,A Moderate Amount,Mostly Outdoors,70 minutes,A Lot,A Lot","None,15 min away,9 people,A Lot,None,All Indoors,40 minutes,None,A Little",1,,34025,2022-06-27 19:15:18,197862
5c0ec45b05ed100001f7861e,ma_choice_v4_social_pilot1,5c0ec45b05ed100001f7861e,5,1,-1,-1,"Amount of alcohol present,Duration,Number of other people present,Amount of physical activity,Amount of food present,Opportunity to socialize,Indoors vs. outdoors,Amount of music,Distance from home","A Moderate Amount,80 minutes,7 people,None,A Little,A Little,Half Indoors and Half Outdoors,A Lot,30 min away","None,60 minutes,5 people,A Lot,A Lot,A Lot,All Indoors,A Little,5 min away",1,,6316,2022-06-27 19:15:18,197863
62b9ac142a506642b5e0d9fb,ma_choice_v4_social_pilot1,62b9ac142a506642b5e0d9fb,18,0,-1,-1,"Indoors vs. outdoors,Amount of physical activity,Number of other people present,Amount of food present,Opportunity to socialize,Distance from home,Duration,Amount of alcohol present,Amount of music","Mostly Outdoors,A Lot,8 people,A Moderate Amount,A Little,45 min away,40 minutes,A Lot,A Lot","All Indoors,None,5 people,None,A Lot,20 min away,80 minutes,None,None",0,,29480,2022-06-27 19:15:19,197866
5c0ec45b05ed100001f7861e,ma_choice_v4_social_pilot1,5c0ec45b05ed100001f7861e,6,1,-1,-1,"Opportunity to socialize,Amount of music,Indoors vs. outdoors,Amount of physical activity,Number of other people present,Amount of food present,Duration,Amount of alcohol present,Distance from home","None,None,Half Indoors and Half Outdoors,A Little,8 people,A Moderate Amount,30 minutes,A Moderate Amount,20 min away","A Lot,A Moderate Amount,All Indoors,A Lot,4 people,None,50 minutes,None,35 min away",1,,6974,2022-06-27 19:15:26,197893
6172edcd801d608b50e9dda0,ma_choice_v4_social_pilot1,6172edcd801d608b50e9dda0,1,1,-1,-1,"Distance from home,Amount of alcohol present,Number of other people present,Amount of music,Opportunity to socialize,Indoors vs. outdoors,Amount of food present,Amount of physical activity,Duration","50 min away,A Little,5 people,A Little,None,Mostly Outdoors,A Moderate Amount,None,40 minutes","40 min away,A Lot,8 people,A Lot,A Moderate Amount,All Indoors,None,A Lot,70 minutes",0,,20766,2022-06-27 19:15:39,197941
5c0ec45b05ed100001f7861e,ma_choice_v4_social_pilot1,5c0ec45b05ed100001f7861e,7,1,-1,-1,"Amount of music,Distance from home,Indoors vs. outdoors,Amount of food present,Number of other people present,Duration,Amount of physical activity,Amount of alcohol present,Opportunity to socialize","A Lot,10 min away,Mostly Indoors,A Lot,4 people,30 minutes,None,A Moderate Amount,A Little","None,50 min away,All Outdoors,A Little,9 people,80 minutes,A Lot,None,A Lot",1,,14836,2022-06-27 19:15:42,197953
62b9ac142a506642b5e0d9fb,ma_choice_v4_social_pilot1,62b9ac142a506642b5e0d9fb,19,0,-1,-1,"Amount of music,Opportunity to socialize,Amount of food present,Amount of physical activity,Number of other people present,Distance from home,Duration,Indoors vs. outdoors,Amount of alcohol present","None,None,A Little,A Lot,3 people,35 min away,40 minutes,All Indoors,A Little","A Moderate Amount,A Lot,A Lot,None,5 people,45 min away,70 minutes,Mostly Outdoors,A Lot",0,,22065,2022-06-27 19:15:42,197955
5f849ae1da640812e4ec057c,ma_choice_v4_social_pilot1,5f849ae1da640812e4ec057c,0,0,-1,-1,"Indoors vs. outdoors,Duration,Opportunity to socialize,Amount of alcohol present,Amount of food present,Amount of music,Amount of physical activity,Distance from home,Number of other people present","Mostly Indoors,40 minutes,None,A Lot,None,A Moderate Amount,A Little,30 min away,11 people","All Outdoors,70 minutes,A Moderate Amount,None,A Moderate Amount,None,A Lot,50 min away,8 people",0,,4084,2022-06-27 19:15:45,197964
5c0ec45b05ed100001f7861e,ma_choice_v4_social_pilot1,5c0ec45b05ed100001f7861e,8,1,-1,-1,"Distance from home,Amount of food present,Indoors vs. outdoors,Amount of physical activity,Duration,Amount of alcohol present,Amount of music,Opportunity to socialize,Number of other people present","35 min away,A Moderate Amount,All Indoors,A Moderate Amount,70 minutes,None,A Little,A Lot,7 people","15 min away,None,All Outdoors,None,50 minutes,A Moderate Amount,A Lot,A Little,3 people",1,,9282,2022-06-27 19:15:52,197999
5f849ae1da640812e4ec057c,ma_choice_v4_social_pilot1,5f849ae1da640812e4ec057c,1,0,-1,-1,"Amount of alcohol present,Indoors vs. outdoors,Number of other people present,Distance from home,Amount of physical activity,Amount of music,Amount of food present,Opportunity to socialize,Duration","None,Half Indoors and Half Outdoors,10 people,45 min away,A Little,A Little,A Lot,A Lot,60 minutes","A Lot,All Outdoors,4 people,55 min away,A Lot,A Lot,A Little,A Little,30 minutes",0,,10278,2022-06-27 19:15:56,198009
5c0ec45b05ed100001f7861e,ma_choice_v4_social_pilot1,5c0ec45b05ed100001f7861e,9,1,-1,-1,"Opportunity to socialize,Indoors vs. outdoors,Duration,Amount of music,Amount of alcohol present,Amount of food present,Number of other people present,Distance from home,Amount of physical activity","None,Mostly Outdoors,70 minutes,A Little,None,A Moderate Amount,9 people,45 min away,A Lot","A Lot,All Indoors,50 minutes,A Lot,A Moderate Amount,None,6 people,60 min away,None",0,,3933,2022-06-27 19:15:57,198013
62b9ac142a506642b5e0d9fb,ma_choice_v4_social_pilot1,62b9ac142a506642b5e0d9fb,20,0,-1,-1,"Opportunity to socialize,Number of other people present,Duration,Amount of food present,Amount of alcohol present,Indoors vs. outdoors,Amount of music,Amount of physical activity,Distance from home","None,6 people,60 minutes,None,A Little,Half Indoors and Half Outdoors,A Moderate Amount,A Moderate Amount,25 min away","A Moderate Amount,8 people,90 minutes,A Moderate Amount,A Lot,All Indoors,None,None,55 min away",0,,14321,2022-06-27 19:15:58,198015
5f849ae1da640812e4ec057c,ma_choice_v4_social_pilot1,5f849ae1da640812e4ec057c,2,0,-1,-1,"Amount of music,Amount of physical activity,Duration,Opportunity to socialize,Number of other people present,Distance from home,Amount of alcohol present,Indoors vs. outdoors,Amount of food present","A Moderate Amount,A Lot,70 minutes,A Little,9 people,25 min away,None,Half Indoors and Half Outdoors,A Moderate Amount","None,None,40 minutes,A Lot,5 people,50 min away,A Moderate Amount,All Indoors,None",0,,9556,2022-06-27 19:16:07,198048
5f849ae1da640812e4ec057c,ma_choice_v4_social_pilot1,5f849ae1da640812e4ec057c,3,0,-1,-1,"Amount of food present,Duration,Number of other people present,Distance from home,Amount of alcohol present,Amount of physical activity,Opportunity to socialize,Amount of music,Indoors vs. outdoors","None,50 minutes,6 people,30 min away,A Moderate Amount,A Little,A Lot,A Moderate Amount,All Indoors","A Lot,70 minutes,9 people,55 min away,None,A Lot,None,None,Half Indoors and Half Outdoors",0,,3682,2022-06-27 19:16:11,198061
6172edcd801d608b50e9dda0,ma_choice_v4_social_pilot1,6172edcd801d608b50e9dda0,2,1,-1,-1,"Duration,Indoors vs. outdoors,Amount of alcohol present,Amount of music,Opportunity to socialize,Amount of food present,Amount of physical activity,Distance from home,Number of other people present","60 minutes,Half Indoors and Half Outdoors,A Moderate Amount,A Moderate Amount,A Little,None,None,55 min away,8 people","80 minutes,All Outdoors,None,None,A Lot,A Lot,A Moderate Amount,10 min away,4 people",0,,32897,2022-06-27 19:16:13,198069
62b9ac142a506642b5e0d9fb,ma_choice_v4_social_pilot1,62b9ac142a506642b5e0d9fb,21,0,-1,-1,"Distance from home,Amount of alcohol present,Amount of music,Duration,Number of other people present,Indoors vs. outdoors,Opportunity to socialize,Amount of physical activity,Amount of food present","20 min away,A Lot,A Moderate Amount,90 minutes,10 people,All Outdoors,A Little,None,A Moderate Amount","40 min away,A Little,None,60 minutes,6 people,All Indoors,A Lot,A Lot,None",0,,16287,2022-06-27 19:16:15,198081
5f849ae1da640812e4ec057c,ma_choice_v4_social_pilot1,5f849ae1da640812e4ec057c,4,0,-1,-1,"Distance from home,Amount of alcohol present,Amount of physical activity,Amount of music,Amount of food present,Number of other people present,Opportunity to socialize,Indoors vs. outdoors,Duration","25 min away,A Moderate Amount,A Lot,None,A Moderate Amount,11 people,A Lot,Mostly Outdoors,70 minutes","10 min away,None,None,A Moderate Amount,None,8 people,A Little,All Indoors,90 minutes",1,,12412,2022-06-27 19:16:25,198111
62b9ac142a506642b5e0d9fb,ma_choice_v4_social_pilot1,62b9ac142a506642b5e0d9fb,22,0,-1,-1,"Distance from home,Amount of music,Number of other people present,Indoors vs. outdoors,Opportunity to socialize,Amount of alcohol present,Amount of food present,Duration,Amount of physical activity","10 min away,A Lot,4 people,Half Indoors and Half Outdoors,None,A Lot,None,50 minutes,None","50 min away,None,7 people,All Indoors,A Lot,None,A Moderate Amount,90 minutes,A Moderate Amount",0,,13155,2022-06-27 19:16:29,198126
5f849ae1da640812e4ec057c,ma_choice_v4_social_pilot1,5f849ae1da640812e4ec057c,5,0,-1,-1,"Indoors vs. outdoors,Amount of food present,Amount of music,Duration,Opportunity to socialize,Number of other people present,Amount of alcohol present,Distance from home,Amount of physical activity","Mostly Outdoors,A Moderate Amount,A Moderate Amount,50 minutes,None,6 people,A Little,15 min away,A Moderate Amount","All Indoors,None,None,70 minutes,A Lot,10 people,A Lot,50 min away,None",0,,3736,2022-06-27 19:16:30,198129
6172edcd801d608b50e9dda0,ma_choice_v4_social_pilot1,6172edcd801d608b50e9dda0,3,1,-1,-1,"Duration,Amount of alcohol present,Amount of music,Opportunity to socialize,Amount of food present,Number of other people present,Amount of physical activity,Indoors vs. outdoors,Distance from home","30 minutes,A Little,A Lot,A Lot,A Moderate Amount,11 people,A Little,Mostly Outdoors,30 min away","60 minutes,A Lot,None,A Little,None,5 people,A Lot,Mostly Indoors,55 min away",0,,16457,2022-06-27 19:16:31,198134
5f849ae1da640812e4ec057c,ma_choice_v4_social_pilot1,5f849ae1da640812e4ec057c,6,0,-1,-1,"Distance from home,Amount of food present,Opportunity to socialize,Duration,Indoors vs. outdoors,Amount of physical activity,Amount of music,Amount of alcohol present,Number of other people present","20 min away,A Moderate Amount,None,70 minutes,Half Indoors and Half Outdoors,A Little,A Little,None,11 people","45 min away,None,A Lot,50 minutes,All Outdoors,A Lot,A Lot,A Lot,6 people",0,,5177,2022-06-27 19:16:36,198154
5c0ec45b05ed100001f7861e,ma_choice_v4_social_pilot1,5c0ec45b05ed100001f7861e,0,0,-1,-1,"Amount of music,Duration,Distance from home,Amount of alcohol present,Amount of physical activity,Amount of food present,Opportunity to socialize,Indoors vs. outdoors,Number of other people present","None,40 minutes,55 min away,None,A Little,A Little,None,Half Indoors and Half Outdoors,7 people","A Moderate Amount,90 minutes,35 min away,A Moderate Amount,A Lot,A Lot,A Lot,All Indoors,4 people",0,,17634,2022-06-27 19:16:38,198163
5f849ae1da640812e4ec057c,ma_choice_v4_social_pilot1,5f849ae1da640812e4ec057c,7,0,-1,-1,"Number of other people present,Indoors vs. outdoors,Duration,Amount of physical activity,Amount of food present,Amount of music,Opportunity to socialize,Amount of alcohol present,Distance from home","5 people,All Outdoors,50 minutes,A Little,A Moderate Amount,None,A Little,None,50 min away","9 people,Half Indoors and Half Outdoors,70 minutes,A Lot,None,A Lot,A Lot,A Lot,30 min away",1,,5916,2022-06-27 19:16:43,198181
62b9ac142a506642b5e0d9fb,ma_choice_v4_social_pilot1,62b9ac142a506642b5e0d9fb,23,0,-1,-1,"Amount of food present,Indoors vs. outdoors,Opportunity to socialize,Duration,Amount of alcohol present,Amount of physical activity,Amount of music,Distance from home,Number of other people present","None,Mostly Indoors,A Little,60 minutes,A Little,A Lot,A Moderate Amount,20 min away,11 people","A Moderate Amount,All Outdoors,A Lot,40 minutes,A Lot,None,None,35 min away,9 people",1,,14162,2022-06-27 19:16:44,198187
5c0ec45b05ed100001f7861e,ma_choice_v4_social_pilot1,5c0ec45b05ed100001f7861e,1,0,-1,-1,"Number of other people present,Amount of physical activity,Amount of alcohol present,Opportunity to socialize,Distance from home,Amount of music,Amount of food present,Duration,Indoors vs. outdoors","11 people,None,A Little,None,10 min away,A Moderate Amount,A Little,30 minutes,Mostly Indoors","3 people,A Lot,A Lot,A Lot,35 min away,None,A Lot,60 minutes,All Outdoors",0,,7612,2022-06-27 19:16:46,198198
5ce6fbd9a76bf00019cfd467,ma_choice_v4_social_pilot1,5ce6fbd9a76bf00019cfd467,0,0,-1,-1,"Number of other people present,Distance from home,Amount of music,Amount of alcohol present,Amount of physical activity,Amount of food present,Opportunity to socialize,Indoors vs. outdoors,Duration","6 people,45 min away,A Moderate Amount,None,A Little,A Moderate Amount,A Little,All Outdoors,90 minutes","4 people,60 min away,None,A Moderate Amount,A Lot,None,A Lot,All Indoors,30 minutes",0,,19308,2022-06-27 19:16:48,198209
6172edcd801d608b50e9dda0,ma_choice_v4_social_pilot1,6172edcd801d608b50e9dda0,4,1,-1,-1,"Opportunity to socialize,Amount of physical activity,Amount of music,Indoors vs. outdoors,Distance from home,Amount of alcohol present,Amount of food present,Duration,Number of other people present","A Little,None,None,All Indoors,20 min away,None,None,50 minutes,4 people","A Lot,A Moderate Amount,A Moderate Amount,All Outdoors,55 min away,A Lot,A Moderate Amount,80 minutes,10 people",0,,20033,2022-06-27 19:16:52,198221
5ce6fbd9a76bf00019cfd467,ma_choice_v4_social_pilot1,5ce6fbd9a76bf00019cfd467,1,0,-1,-1,"Number of other people present,Amount of food present,Amount of music,Indoors vs. outdoors,Amount of alcohol present,Opportunity to socialize,Amount of physical activity,Duration,Distance from home","3 people,A Little,A Little,All Outdoors,None,A Little,A Little,60 minutes,20 min away","8 people,A Lot,A Lot,Half Indoors and Half Outdoors,A Lot,A Lot,A Lot,40 minutes,35 min away",1,,2986,2022-06-27 19:16:52,198222
5f849ae1da640812e4ec057c,ma_choice_v4_social_pilot1,5f849ae1da640812e4ec057c,8,0,-1,-1,"Indoors vs. outdoors,Amount of music,Distance from home,Number of other people present,Amount of physical activity,Amount of alcohol present,Duration,Amount of food present,Opportunity to socialize","Half Indoors and Half Outdoors,A Lot,25 min away,3 people,A Little,A Little,30 minutes,None,A Little","All Indoors,None,15 min away,6 people,A Lot,A Lot,60 minutes,A Moderate Amount,A Lot",0,,12767,2022-06-27 19:16:56,198245
5c0ec45b05ed100001f7861e,ma_choice_v4_social_pilot1,5c0ec45b05ed100001f7861e,2,0,-1,-1,"Amount of music,Number of other people present,Opportunity to socialize,Indoors vs. outdoors,Amount of physical activity,Amount of food present,Amount of alcohol present,Distance from home,Duration","None,11 people,A Moderate Amount,Mostly Outdoors,A Moderate Amount,A Little,A Lot,30 min away,40 minutes","A Lot,3 people,None,All Indoors,None,A Lot,A Little,45 min away,60 minutes",0,,11784,2022-06-27 19:16:59,198255
5ce6fbd9a76bf00019cfd467,ma_choice_v4_social_pilot1,5ce6fbd9a76bf00019cfd467,2,0,-1,-1,"Amount of music,Indoors vs. outdoors,Number of other people present,Opportunity to socialize,Duration,Distance from home,Amount of alcohol present,Amount of food present,Amount of physical activity","A Moderate Amount,All Outdoors,4 people,A Moderate Amount,70 minutes,10 min away,A Moderate Amount,A Moderate Amount,A Lot","None,Half Indoors and Half Outdoors,9 people,None,40 minutes,50 min away,None,None,A Little",0,,6518,2022-06-27 19:17:00,198259
62b9ac142a506642b5e0d9fb,ma_choice_v4_social_pilot1,62b9ac142a506642b5e0d9fb,24,0,-1,-1,"Amount of music,Amount of physical activity,Amount of food present,Distance from home,Amount of alcohol present,Indoors vs. outdoors,Opportunity to socialize,Duration,Number of other people present","A Little,A Lot,A Little,60 min away,A Little,All Indoors,A Little,60 minutes,5 people","A Lot,A Little,A Lot,35 min away,A Lot,Mostly Outdoors,A Lot,80 minutes,9 people",1,,16003,2022-06-27 19:17:01,198261
