subject,version,assignmentId,trial,attribute,rating,least_preferred,most_preferred,type,rt,rt2,full_or_lex,signed_weights,original_or_followup,stamp,id
5f849ae1da640812e4ec057c,ma_choice_v4_social_pilot1,5f849ae1da640812e4ec057c,0,Distance from home,1,,,lex_att_rating,7728,,,,,2022-06-27 19:26:45,57437
5f849ae1da640812e4ec057c,ma_choice_v4_social_pilot1,5f849ae1da640812e4ec057c,3,Number of other people present,1,,,wad_att_rating,6127,,,,,2022-06-27 19:26:54,57447
5f849ae1da640812e4ec057c,ma_choice_v4_social_pilot1,5f849ae1da640812e4ec057c,4,Duration,75,,,wad_att_rating,5104,,,,,2022-06-27 19:26:59,57456
5f849ae1da640812e4ec057c,ma_choice_v4_social_pilot1,5f849ae1da640812e4ec057c,8,Opportunity to socialize,0,,,wad_att_rating,3589,,,,,2022-06-27 19:27:03,57462
5f849ae1da640812e4ec057c,ma_choice_v4_social_pilot1,5f849ae1da640812e4ec057c,7,Amount of music,0,,,wad_att_rating,1138,,,,,2022-06-27 19:27:04,57465
5f849ae1da640812e4ec057c,ma_choice_v4_social_pilot1,5f849ae1da640812e4ec057c,2,Amount of food present,0,,,wad_att_rating,1104,,,,,2022-06-27 19:27:05,57468
5f849ae1da640812e4ec057c,ma_choice_v4_social_pilot1,5f849ae1da640812e4ec057c,1,Amount of alcohol present,49,,,wad_att_rating,4075,,,,,2022-06-27 19:27:09,57477
5f849ae1da640812e4ec057c,ma_choice_v4_social_pilot1,5f849ae1da640812e4ec057c,6,Indoors vs. outdoors,49,,,wad_att_rating,3100,,,,,2022-06-27 19:27:12,57484
5f849ae1da640812e4ec057c,ma_choice_v4_social_pilot1,5f849ae1da640812e4ec057c,0,Distance from home,100,,,wad_att_rating,3920,,,,,2022-06-27 19:27:16,57497
5f849ae1da640812e4ec057c,ma_choice_v4_social_pilot1,5f849ae1da640812e4ec057c,5,Amount of physical activity,23,,,wad_att_rating,3633,,,,,2022-06-27 19:27:20,57503
5f849ae1da640812e4ec057c,ma_choice_v4_social_pilot1,5f849ae1da640812e4ec057c,0,Distance from home,1,,,ew_att_rating,15546,,,,,2022-06-27 19:27:42,57537
5f849ae1da640812e4ec057c,ma_choice_v4_social_pilot1,5f849ae1da640812e4ec057c,0,Duration,1,,,ew_att_rating,15546,,,,,2022-06-27 19:27:42,57538
5ff0f1b0dd8cf14ba8957c5b,ma_choice_v4_social_pilot1,5ff0f1b0dd8cf14ba8957c5b,0,Amount of alcohol present,1,,,lex_att_rating,4839,,,,,2022-06-27 19:29:05,57649
5ff0f1b0dd8cf14ba8957c5b,ma_choice_v4_social_pilot1,5ff0f1b0dd8cf14ba8957c5b,7,Amount of music,37,,,wad_att_rating,5112,,,,,2022-06-27 19:29:20,57684
5ff0f1b0dd8cf14ba8957c5b,ma_choice_v4_social_pilot1,5ff0f1b0dd8cf14ba8957c5b,0,Distance from home,27,,,wad_att_rating,10829,,,,,2022-06-27 19:29:31,57699
5ff0f1b0dd8cf14ba8957c5b,ma_choice_v4_social_pilot1,5ff0f1b0dd8cf14ba8957c5b,1,Amount of alcohol present,75,,,wad_att_rating,2586,,,,,2022-06-27 19:29:34,57704
5ff0f1b0dd8cf14ba8957c5b,ma_choice_v4_social_pilot1,5ff0f1b0dd8cf14ba8957c5b,2,Amount of food present,65,,,wad_att_rating,3788,,,,,2022-06-27 19:29:38,57713
5ff0f1b0dd8cf14ba8957c5b,ma_choice_v4_social_pilot1,5ff0f1b0dd8cf14ba8957c5b,6,Indoors vs. outdoors,25,,,wad_att_rating,2957,,,,,2022-06-27 19:29:41,57719
5ff0f1b0dd8cf14ba8957c5b,ma_choice_v4_social_pilot1,5ff0f1b0dd8cf14ba8957c5b,8,Opportunity to socialize,10,,,wad_att_rating,3619,,,,,2022-06-27 19:29:44,57729
5ff0f1b0dd8cf14ba8957c5b,ma_choice_v4_social_pilot1,5ff0f1b0dd8cf14ba8957c5b,5,Amount of physical activity,11,,,wad_att_rating,1788,,,,,2022-06-27 19:29:46,57733
5ff0f1b0dd8cf14ba8957c5b,ma_choice_v4_social_pilot1,5ff0f1b0dd8cf14ba8957c5b,4,Duration,49,,,wad_att_rating,4053,,,,,2022-06-27 19:29:50,57741
5ff0f1b0dd8cf14ba8957c5b,ma_choice_v4_social_pilot1,5ff0f1b0dd8cf14ba8957c5b,3,Number of other people present,36,,,wad_att_rating,5148,,,,,2022-06-27 19:29:55,57752
5ce6fbd9a76bf00019cfd467,ma_choice_v4_social_pilot1,5ce6fbd9a76bf00019cfd467,0,Amount of alcohol present,1,,,lex_att_rating,6983,,,,,2022-06-27 19:30:13,57793
5ff0f1b0dd8cf14ba8957c5b,ma_choice_v4_social_pilot1,5ff0f1b0dd8cf14ba8957c5b,0,Distance from home,1,,,ew_att_rating,16087,,,,,2022-06-27 19:30:23,57816
5ff0f1b0dd8cf14ba8957c5b,ma_choice_v4_social_pilot1,5ff0f1b0dd8cf14ba8957c5b,0,Duration,1,,,ew_att_rating,16087,,,,,2022-06-27 19:30:23,57817
5ff0f1b0dd8cf14ba8957c5b,ma_choice_v4_social_pilot1,5ff0f1b0dd8cf14ba8957c5b,0,Amount of alcohol present,1,,,ew_att_rating,16087,,,,,2022-06-27 19:30:23,57818
5ff0f1b0dd8cf14ba8957c5b,ma_choice_v4_social_pilot1,5ff0f1b0dd8cf14ba8957c5b,0,Amount of food present,1,,,ew_att_rating,16087,,,,,2022-06-27 19:30:23,57819
5ce6fbd9a76bf00019cfd467,ma_choice_v4_social_pilot1,5ce6fbd9a76bf00019cfd467,0,Duration,1,,,ew_att_rating,18670,,,,,2022-06-27 19:30:42,57861
5ce6fbd9a76bf00019cfd467,ma_choice_v4_social_pilot1,5ce6fbd9a76bf00019cfd467,0,Amount of food present,1,,,ew_att_rating,18670,,,,,2022-06-27 19:30:42,57862
5ce6fbd9a76bf00019cfd467,ma_choice_v4_social_pilot1,5ce6fbd9a76bf00019cfd467,0,Amount of alcohol present,1,,,ew_att_rating,18670,,,,,2022-06-27 19:30:42,57863
5ce6fbd9a76bf00019cfd467,ma_choice_v4_social_pilot1,5ce6fbd9a76bf00019cfd467,6,Indoors vs. outdoors,51,,,wad_att_rating,10680,,,,,2022-06-27 19:30:56,57906
5ce6fbd9a76bf00019cfd467,ma_choice_v4_social_pilot1,5ce6fbd9a76bf00019cfd467,3,Number of other people present,25,,,wad_att_rating,3741,,,,,2022-06-27 19:31:00,57918
5ce6fbd9a76bf00019cfd467,ma_choice_v4_social_pilot1,5ce6fbd9a76bf00019cfd467,8,Opportunity to socialize,51,,,wad_att_rating,3214,,,,,2022-06-27 19:31:03,57926
5ce6fbd9a76bf00019cfd467,ma_choice_v4_social_pilot1,5ce6fbd9a76bf00019cfd467,4,Duration,73,,,wad_att_rating,3486,,,,,2022-06-27 19:31:06,57935
5ce6fbd9a76bf00019cfd467,ma_choice_v4_social_pilot1,5ce6fbd9a76bf00019cfd467,0,Distance from home,51,,,wad_att_rating,2828,,,,,2022-06-27 19:31:09,57943
5ff0f1b0dd8cf14ba8957c5b,ma_choice_v4_social_pilot1,5ff0f1b0dd8cf14ba8957c5b,0,Amount of food present,1,None,A Lot,direction,11491,,,,,2022-06-27 19:31:10,57947
5ce6fbd9a76bf00019cfd467,ma_choice_v4_social_pilot1,5ce6fbd9a76bf00019cfd467,5,Amount of physical activity,61,,,wad_att_rating,3108,,,,,2022-06-27 19:31:12,57960
5ce6fbd9a76bf00019cfd467,ma_choice_v4_social_pilot1,5ce6fbd9a76bf00019cfd467,7,Amount of music,50,,,wad_att_rating,2571,,,,,2022-06-27 19:31:15,57962
5ff0f1b0dd8cf14ba8957c5b,ma_choice_v4_social_pilot1,5ff0f1b0dd8cf14ba8957c5b,0,Amount of food present,1,None,A Little,direction,6233,,,,,2022-06-27 19:31:17,57968
5ce6fbd9a76bf00019cfd467,ma_choice_v4_social_pilot1,5ce6fbd9a76bf00019cfd467,2,Amount of food present,100,,,wad_att_rating,2676,,,,,2022-06-27 19:31:17,57969
5ff0f1b0dd8cf14ba8957c5b,ma_choice_v4_social_pilot1,5ff0f1b0dd8cf14ba8957c5b,0,Amount of food present,1,A Little,A Moderate Amount,direction,3328,,,,,2022-06-27 19:31:20,57979
5ce6fbd9a76bf00019cfd467,ma_choice_v4_social_pilot1,5ce6fbd9a76bf00019cfd467,1,Amount of alcohol present,100,,,wad_att_rating,3958,,,,,2022-06-27 19:31:21,57982
5ff0f1b0dd8cf14ba8957c5b,ma_choice_v4_social_pilot1,5ff0f1b0dd8cf14ba8957c5b,0,Amount of food present,1,A Moderate Amount,A Lot,direction,6277,,,,,2022-06-27 19:31:26,57989
5ff0f1b0dd8cf14ba8957c5b,ma_choice_v4_social_pilot1,5ff0f1b0dd8cf14ba8957c5b,1,Duration,0,30 minutes,90 minutes,direction,1813,,,,,2022-06-27 19:31:30,57997
5ff0f1b0dd8cf14ba8957c5b,ma_choice_v4_social_pilot1,5ff0f1b0dd8cf14ba8957c5b,1,Duration,0,30 minutes,50 minutes,direction,3718,,,,,2022-06-27 19:31:34,58004
5ff0f1b0dd8cf14ba8957c5b,ma_choice_v4_social_pilot1,5ff0f1b0dd8cf14ba8957c5b,1,Duration,0,50 minutes,60 minutes,direction,2167,,,,,2022-06-27 19:31:36,58010
5ff0f1b0dd8cf14ba8957c5b,ma_choice_v4_social_pilot1,5ff0f1b0dd8cf14ba8957c5b,1,Duration,0,60 minutes,80 minutes,direction,1528,,,,,2022-06-27 19:31:37,58015
5ff0f1b0dd8cf14ba8957c5b,ma_choice_v4_social_pilot1,5ff0f1b0dd8cf14ba8957c5b,1,Duration,0,80 minutes,90 minutes,direction,1408,,,,,2022-06-27 19:31:39,58017
5ff0f1b0dd8cf14ba8957c5b,ma_choice_v4_social_pilot1,5ff0f1b0dd8cf14ba8957c5b,2,Amount of music,1,None,A Lot,direction,1423,,,,,2022-06-27 19:31:41,58023
5ff0f1b0dd8cf14ba8957c5b,ma_choice_v4_social_pilot1,5ff0f1b0dd8cf14ba8957c5b,2,Amount of music,1,None,A Little,direction,1048,,,,,2022-06-27 19:31:42,58028
5ff0f1b0dd8cf14ba8957c5b,ma_choice_v4_social_pilot1,5ff0f1b0dd8cf14ba8957c5b,2,Amount of music,1,A Little,A Moderate Amount,direction,2046,,,,,2022-06-27 19:31:44,58033
5ff0f1b0dd8cf14ba8957c5b,ma_choice_v4_social_pilot1,5ff0f1b0dd8cf14ba8957c5b,2,Amount of music,1,A Moderate Amount,A Lot,direction,2898,,,,,2022-06-27 19:31:47,58041
5ff0f1b0dd8cf14ba8957c5b,ma_choice_v4_social_pilot1,5ff0f1b0dd8cf14ba8957c5b,3,Amount of physical activity,0,None,A Lot,direction,3966,,,,,2022-06-27 19:31:52,58054
5ff0f1b0dd8cf14ba8957c5b,ma_choice_v4_social_pilot1,5ff0f1b0dd8cf14ba8957c5b,3,Amount of physical activity,0,None,A Little,direction,2610,,,,,2022-06-27 19:31:55,58061
5ff0f1b0dd8cf14ba8957c5b,ma_choice_v4_social_pilot1,5ff0f1b0dd8cf14ba8957c5b,3,Amount of physical activity,0,A Little,A Moderate Amount,direction,1374,,,,,2022-06-27 19:31:56,58063
5ff0f1b0dd8cf14ba8957c5b,ma_choice_v4_social_pilot1,5ff0f1b0dd8cf14ba8957c5b,3,Amount of physical activity,0,A Moderate Amount,A Lot,direction,1652,,,,,2022-06-27 19:31:58,58066
5ff0f1b0dd8cf14ba8957c5b,ma_choice_v4_social_pilot1,5ff0f1b0dd8cf14ba8957c5b,4,Indoors vs. outdoors,0,All Indoors,All Outdoors,direction,2834,,,,,2022-06-27 19:32:02,58074
5ff0f1b0dd8cf14ba8957c5b,ma_choice_v4_social_pilot1,5ff0f1b0dd8cf14ba8957c5b,4,Indoors vs. outdoors,1,All Indoors,Mostly Indoors,direction,2358,,,,,2022-06-27 19:32:04,58077
5ff0f1b0dd8cf14ba8957c5b,ma_choice_v4_social_pilot1,5ff0f1b0dd8cf14ba8957c5b,4,Indoors vs. outdoors,1,Mostly Indoors,Half Indoors and Half Outdoors,direction,2309,,,,,2022-06-27 19:32:06,58083
5ff0f1b0dd8cf14ba8957c5b,ma_choice_v4_social_pilot1,5ff0f1b0dd8cf14ba8957c5b,4,Indoors vs. outdoors,0,Half Indoors and Half Outdoors,Mostly Outdoors,direction,1333,,,,,2022-06-27 19:32:07,58085
5ff0f1b0dd8cf14ba8957c5b,ma_choice_v4_social_pilot1,5ff0f1b0dd8cf14ba8957c5b,4,Indoors vs. outdoors,1,Mostly Outdoors,All Outdoors,direction,2173,,,,,2022-06-27 19:32:10,58089
5ff0f1b0dd8cf14ba8957c5b,ma_choice_v4_social_pilot1,5ff0f1b0dd8cf14ba8957c5b,5,Opportunity to socialize,0,None,A Lot,direction,14618,,,,,2022-06-27 19:32:25,58115
5ff0f1b0dd8cf14ba8957c5b,ma_choice_v4_social_pilot1,5ff0f1b0dd8cf14ba8957c5b,5,Opportunity to socialize,0,None,A Little,direction,1175,,,,,2022-06-27 19:32:26,58117
5ff0f1b0dd8cf14ba8957c5b,ma_choice_v4_social_pilot1,5ff0f1b0dd8cf14ba8957c5b,5,Opportunity to socialize,0,A Little,A Moderate Amount,direction,1424,,,,,2022-06-27 19:32:28,58119
5ff0f1b0dd8cf14ba8957c5b,ma_choice_v4_social_pilot1,5ff0f1b0dd8cf14ba8957c5b,5,Opportunity to socialize,0,A Moderate Amount,A Lot,direction,1815,,,,,2022-06-27 19:32:29,58124
5ff0f1b0dd8cf14ba8957c5b,ma_choice_v4_social_pilot1,5ff0f1b0dd8cf14ba8957c5b,6,Amount of alcohol present,1,None,A Lot,direction,1131,,,,,2022-06-27 19:32:31,58128
5ff0f1b0dd8cf14ba8957c5b,ma_choice_v4_social_pilot1,5ff0f1b0dd8cf14ba8957c5b,6,Amount of alcohol present,1,None,A Little,direction,1144,,,,,2022-06-27 19:32:32,58131
5ff0f1b0dd8cf14ba8957c5b,ma_choice_v4_social_pilot1,5ff0f1b0dd8cf14ba8957c5b,6,Amount of alcohol present,1,A Little,A Moderate Amount,direction,1479,,,,,2022-06-27 19:32:34,58134
5ff0f1b0dd8cf14ba8957c5b,ma_choice_v4_social_pilot1,5ff0f1b0dd8cf14ba8957c5b,6,Amount of alcohol present,1,A Moderate Amount,A Lot,direction,1731,,,,,2022-06-27 19:32:36,58140
5ff0f1b0dd8cf14ba8957c5b,ma_choice_v4_social_pilot1,5ff0f1b0dd8cf14ba8957c5b,7,Distance from home,0,5 min away,60 min away,direction,2222,,,,,2022-06-27 19:32:39,58147
5ff0f1b0dd8cf14ba8957c5b,ma_choice_v4_social_pilot1,5ff0f1b0dd8cf14ba8957c5b,7,Distance from home,0,5 min away,20 min away,direction,1332,,,,,2022-06-27 19:32:40,58150
5ff0f1b0dd8cf14ba8957c5b,ma_choice_v4_social_pilot1,5ff0f1b0dd8cf14ba8957c5b,7,Distance from home,0,20 min away,35 min away,direction,1387,,,,,2022-06-27 19:32:42,58153
5ff0f1b0dd8cf14ba8957c5b,ma_choice_v4_social_pilot1,5ff0f1b0dd8cf14ba8957c5b,7,Distance from home,0,35 min away,45 min away,direction,1379,,,,,2022-06-27 19:32:43,58155
5ff0f1b0dd8cf14ba8957c5b,ma_choice_v4_social_pilot1,5ff0f1b0dd8cf14ba8957c5b,7,Distance from home,0,45 min away,60 min away,direction,1258,,,,,2022-06-27 19:32:44,58161
5ff0f1b0dd8cf14ba8957c5b,ma_choice_v4_social_pilot1,5ff0f1b0dd8cf14ba8957c5b,8,Number of other people present,1,3 people,12 people,direction,1533,,,,,2022-06-27 19:32:46,58174
5ff0f1b0dd8cf14ba8957c5b,ma_choice_v4_social_pilot1,5ff0f1b0dd8cf14ba8957c5b,8,Number of other people present,1,3 people,5 people,direction,1216,,,,,2022-06-27 19:32:48,58177
5ff0f1b0dd8cf14ba8957c5b,ma_choice_v4_social_pilot1,5ff0f1b0dd8cf14ba8957c5b,8,Number of other people present,1,5 people,8 people,direction,2286,,,,,2022-06-27 19:32:50,58183
5ff0f1b0dd8cf14ba8957c5b,ma_choice_v4_social_pilot1,5ff0f1b0dd8cf14ba8957c5b,8,Number of other people present,1,8 people,10 people,direction,1205,,,,,2022-06-27 19:32:51,58185
5ff0f1b0dd8cf14ba8957c5b,ma_choice_v4_social_pilot1,5ff0f1b0dd8cf14ba8957c5b,8,Number of other people present,1,10 people,12 people,direction,1427,,,,,2022-06-27 19:32:53,58187
5f849ae1da640812e4ec057c,ma_choice_v4_social_pilot1,5f849ae1da640812e4ec057c,0,Amount of music,1,None,A Lot,direction,10872,,,,,2022-06-27 19:32:53,58189
5f849ae1da640812e4ec057c,ma_choice_v4_social_pilot1,5f849ae1da640812e4ec057c,0,Amount of music,1,None,A Little,direction,6125,,,,,2022-06-27 19:32:59,58205
5f849ae1da640812e4ec057c,ma_choice_v4_social_pilot1,5f849ae1da640812e4ec057c,0,Amount of music,0,A Little,A Moderate Amount,direction,8062,,,,,2022-06-27 19:33:07,58222
5f849ae1da640812e4ec057c,ma_choice_v4_social_pilot1,5f849ae1da640812e4ec057c,0,Amount of music,0,A Moderate Amount,A Lot,direction,4406,,,,,2022-06-27 19:33:11,58232
5f849ae1da640812e4ec057c,ma_choice_v4_social_pilot1,5f849ae1da640812e4ec057c,1,Duration,0,30 minutes,90 minutes,direction,3375,,,,,2022-06-27 19:33:16,58242
5f849ae1da640812e4ec057c,ma_choice_v4_social_pilot1,5f849ae1da640812e4ec057c,1,Duration,0,30 minutes,50 minutes,direction,3483,,,,,2022-06-27 19:33:20,58256
5f849ae1da640812e4ec057c,ma_choice_v4_social_pilot1,5f849ae1da640812e4ec057c,1,Duration,0,50 minutes,60 minutes,direction,3118,,,,,2022-06-27 19:33:23,58260
5f849ae1da640812e4ec057c,ma_choice_v4_social_pilot1,5f849ae1da640812e4ec057c,1,Duration,0,60 minutes,80 minutes,direction,2813,,,,,2022-06-27 19:33:25,58265
5f849ae1da640812e4ec057c,ma_choice_v4_social_pilot1,5f849ae1da640812e4ec057c,1,Duration,0,80 minutes,90 minutes,direction,2929,,,,,2022-06-27 19:33:28,58275
5f849ae1da640812e4ec057c,ma_choice_v4_social_pilot1,5f849ae1da640812e4ec057c,2,Number of other people present,0,3 people,12 people,direction,2308,,,,,2022-06-27 19:33:32,58284
5f849ae1da640812e4ec057c,ma_choice_v4_social_pilot1,5f849ae1da640812e4ec057c,2,Number of other people present,0,3 people,5 people,direction,2197,,,,,2022-06-27 19:33:35,58289
5f849ae1da640812e4ec057c,ma_choice_v4_social_pilot1,5f849ae1da640812e4ec057c,2,Number of other people present,0,5 people,8 people,direction,2039,,,,,2022-06-27 19:33:37,58294
5f849ae1da640812e4ec057c,ma_choice_v4_social_pilot1,5f849ae1da640812e4ec057c,2,Number of other people present,0,8 people,10 people,direction,2478,,,,,2022-06-27 19:33:39,58300
5f849ae1da640812e4ec057c,ma_choice_v4_social_pilot1,5f849ae1da640812e4ec057c,2,Number of other people present,0,10 people,12 people,direction,3314,,,,,2022-06-27 19:33:42,58307
5f849ae1da640812e4ec057c,ma_choice_v4_social_pilot1,5f849ae1da640812e4ec057c,3,Amount of food present,1,None,A Lot,direction,3249,,,,,2022-06-27 19:33:47,58318
5f849ae1da640812e4ec057c,ma_choice_v4_social_pilot1,5f849ae1da640812e4ec057c,3,Amount of food present,1,None,A Little,direction,2257,,,,,2022-06-27 19:33:50,58324
5f849ae1da640812e4ec057c,ma_choice_v4_social_pilot1,5f849ae1da640812e4ec057c,3,Amount of food present,1,A Little,A Moderate Amount,direction,2096,,,,,2022-06-27 19:33:52,58331
5f849ae1da640812e4ec057c,ma_choice_v4_social_pilot1,5f849ae1da640812e4ec057c,3,Amount of food present,0,A Moderate Amount,A Lot,direction,2665,,,,,2022-06-27 19:33:54,58340
5f849ae1da640812e4ec057c,ma_choice_v4_social_pilot1,5f849ae1da640812e4ec057c,4,Amount of physical activity,0,None,A Lot,direction,2784,,,,,2022-06-27 19:33:58,58351
5f849ae1da640812e4ec057c,ma_choice_v4_social_pilot1,5f849ae1da640812e4ec057c,4,Amount of physical activity,1,None,A Little,direction,2320,,,,,2022-06-27 19:34:01,58356
5f849ae1da640812e4ec057c,ma_choice_v4_social_pilot1,5f849ae1da640812e4ec057c,4,Amount of physical activity,1,A Little,A Moderate Amount,direction,2069,,,,,2022-06-27 19:34:03,58361
5f849ae1da640812e4ec057c,ma_choice_v4_social_pilot1,5f849ae1da640812e4ec057c,4,Amount of physical activity,1,A Moderate Amount,A Lot,direction,2228,,,,,2022-06-27 19:34:05,58369
5f849ae1da640812e4ec057c,ma_choice_v4_social_pilot1,5f849ae1da640812e4ec057c,5,Opportunity to socialize,0,None,A Lot,direction,3810,,,,,2022-06-27 19:34:10,58377
5f849ae1da640812e4ec057c,ma_choice_v4_social_pilot1,5f849ae1da640812e4ec057c,5,Opportunity to socialize,0,None,A Little,direction,1632,,,,,2022-06-27 19:34:12,58383
5f849ae1da640812e4ec057c,ma_choice_v4_social_pilot1,5f849ae1da640812e4ec057c,5,Opportunity to socialize,0,A Little,A Moderate Amount,direction,2244,,,,,2022-06-27 19:34:14,58388
5f849ae1da640812e4ec057c,ma_choice_v4_social_pilot1,5f849ae1da640812e4ec057c,5,Opportunity to socialize,0,A Moderate Amount,A Lot,direction,2582,,,,,2022-06-27 19:34:17,58395
5f849ae1da640812e4ec057c,ma_choice_v4_social_pilot1,5f849ae1da640812e4ec057c,6,Distance from home,0,5 min away,60 min away,direction,1993,,,,,2022-06-27 19:34:20,58406
5f849ae1da640812e4ec057c,ma_choice_v4_social_pilot1,5f849ae1da640812e4ec057c,6,Distance from home,0,5 min away,20 min away,direction,1712,,,,,2022-06-27 19:34:22,58412
5f849ae1da640812e4ec057c,ma_choice_v4_social_pilot1,5f849ae1da640812e4ec057c,6,Distance from home,0,20 min away,35 min away,direction,1634,,,,,2022-06-27 19:34:24,58417
5f849ae1da640812e4ec057c,ma_choice_v4_social_pilot1,5f849ae1da640812e4ec057c,6,Distance from home,0,35 min away,45 min away,direction,3469,,,,,2022-06-27 19:34:27,58427
5f849ae1da640812e4ec057c,ma_choice_v4_social_pilot1,5f849ae1da640812e4ec057c,6,Distance from home,0,45 min away,60 min away,direction,4821,,,,,2022-06-27 19:34:32,58441
5f849ae1da640812e4ec057c,ma_choice_v4_social_pilot1,5f849ae1da640812e4ec057c,7,Indoors vs. outdoors,1,All Indoors,All Outdoors,direction,2323,,,,,2022-06-27 19:34:37,58454
5f849ae1da640812e4ec057c,ma_choice_v4_social_pilot1,5f849ae1da640812e4ec057c,7,Indoors vs. outdoors,1,All Indoors,Mostly Indoors,direction,4135,,,,,2022-06-27 19:34:41,58473
5f849ae1da640812e4ec057c,ma_choice_v4_social_pilot1,5f849ae1da640812e4ec057c,7,Indoors vs. outdoors,1,Mostly Indoors,Half Indoors and Half Outdoors,direction,3042,,,,,2022-06-27 19:34:44,58483
5f849ae1da640812e4ec057c,ma_choice_v4_social_pilot1,5f849ae1da640812e4ec057c,7,Indoors vs. outdoors,1,Half Indoors and Half Outdoors,Mostly Outdoors,direction,4876,,,,,2022-06-27 19:34:49,58503
5f849ae1da640812e4ec057c,ma_choice_v4_social_pilot1,5f849ae1da640812e4ec057c,7,Indoors vs. outdoors,1,Mostly Outdoors,All Outdoors,direction,2118,,,,,2022-06-27 19:34:51,58519
5c0ec45b05ed100001f7861e,ma_choice_v4_social_pilot1,5c0ec45b05ed100001f7861e,0,Amount of alcohol present,1,,,lex_att_rating,11690,,,,,2022-06-27 19:35:01,58560
5c0ec45b05ed100001f7861e,ma_choice_v4_social_pilot1,5c0ec45b05ed100001f7861e,0,Indoors vs. outdoors,1,,,ew_att_rating,14708,,,,,2022-06-27 19:35:31,58680
5c0ec45b05ed100001f7861e,ma_choice_v4_social_pilot1,5c0ec45b05ed100001f7861e,0,Opportunity to socialize,1,,,ew_att_rating,14708,,,,,2022-06-27 19:35:31,58682
5c0ec45b05ed100001f7861e,ma_choice_v4_social_pilot1,5c0ec45b05ed100001f7861e,0,Amount of alcohol present,1,,,ew_att_rating,14708,,,,,2022-06-27 19:35:31,58683
5c0ec45b05ed100001f7861e,ma_choice_v4_social_pilot1,5c0ec45b05ed100001f7861e,0,Number of other people present,1,,,ew_att_rating,14708,,,,,2022-06-27 19:35:31,58684
5c0ec45b05ed100001f7861e,ma_choice_v4_social_pilot1,5c0ec45b05ed100001f7861e,8,Opportunity to socialize,100,,,wad_att_rating,7834,,,,,2022-06-27 19:35:47,58750
5c0ec45b05ed100001f7861e,ma_choice_v4_social_pilot1,5c0ec45b05ed100001f7861e,3,Number of other people present,63,,,wad_att_rating,4983,,,,,2022-06-27 19:35:52,58769
5c0ec45b05ed100001f7861e,ma_choice_v4_social_pilot1,5c0ec45b05ed100001f7861e,2,Amount of food present,0,,,wad_att_rating,2239,,,,,2022-06-27 19:35:55,58779
5f849ae1da640812e4ec057c,ma_choice_v4_social_pilot1,5f849ae1da640812e4ec057c,8,Amount of alcohol present,0,None,A Lot,direction,2606,,,,,2022-06-27 19:35:57,58786
5c0ec45b05ed100001f7861e,ma_choice_v4_social_pilot1,5c0ec45b05ed100001f7861e,6,Indoors vs. outdoors,63,,,wad_att_rating,3271,,,,,2022-06-27 19:35:58,58789
5f849ae1da640812e4ec057c,ma_choice_v4_social_pilot1,5f849ae1da640812e4ec057c,8,Amount of alcohol present,0,None,A Little,direction,1489,,,,,2022-06-27 19:35:59,58792
5c0ec45b05ed100001f7861e,ma_choice_v4_social_pilot1,5c0ec45b05ed100001f7861e,4,Duration,11,,,wad_att_rating,2710,,,,,2022-06-27 19:36:01,58799
5f849ae1da640812e4ec057c,ma_choice_v4_social_pilot1,5f849ae1da640812e4ec057c,8,Amount of alcohol present,0,A Little,A Moderate Amount,direction,1935,,,,,2022-06-27 19:36:01,58800
5f849ae1da640812e4ec057c,ma_choice_v4_social_pilot1,5f849ae1da640812e4ec057c,8,Amount of alcohol present,0,A Moderate Amount,A Lot,direction,2288,,,,,2022-06-27 19:36:03,58805
5c0ec45b05ed100001f7861e,ma_choice_v4_social_pilot1,5c0ec45b05ed100001f7861e,0,Distance from home,38,,,wad_att_rating,4719,,,,,2022-06-27 19:36:05,58812
5c0ec45b05ed100001f7861e,ma_choice_v4_social_pilot1,5c0ec45b05ed100001f7861e,5,Amount of physical activity,0,,,wad_att_rating,2148,,,,,2022-06-27 19:36:07,58824
5c0ec45b05ed100001f7861e,ma_choice_v4_social_pilot1,5c0ec45b05ed100001f7861e,1,Amount of alcohol present,100,,,wad_att_rating,1997,,,,,2022-06-27 19:36:09,58831
5c0ec45b05ed100001f7861e,ma_choice_v4_social_pilot1,5c0ec45b05ed100001f7861e,7,Amount of music,20,,,wad_att_rating,2835,,,,,2022-06-27 19:36:12,58844
5ce6fbd9a76bf00019cfd467,ma_choice_v4_social_pilot1,5ce6fbd9a76bf00019cfd467,0,Amount of alcohol present,1,None,A Lot,direction,10362,,,,,2022-06-27 19:36:41,58931
5ce6fbd9a76bf00019cfd467,ma_choice_v4_social_pilot1,5ce6fbd9a76bf00019cfd467,0,Amount of alcohol present,1,None,A Little,direction,8752,,,,,2022-06-27 19:36:50,58947
5ce6fbd9a76bf00019cfd467,ma_choice_v4_social_pilot1,5ce6fbd9a76bf00019cfd467,0,Amount of alcohol present,1,A Little,A Moderate Amount,direction,4126,,,,,2022-06-27 19:36:54,58957
5ce6fbd9a76bf00019cfd467,ma_choice_v4_social_pilot1,5ce6fbd9a76bf00019cfd467,0,Amount of alcohol present,0,A Moderate Amount,A Lot,direction,6867,,,,,2022-06-27 19:37:01,58969
5ce6fbd9a76bf00019cfd467,ma_choice_v4_social_pilot1,5ce6fbd9a76bf00019cfd467,1,Number of other people present,1,3 people,12 people,direction,8757,,,,,2022-06-27 19:37:11,58990
5ce6fbd9a76bf00019cfd467,ma_choice_v4_social_pilot1,5ce6fbd9a76bf00019cfd467,1,Number of other people present,1,3 people,5 people,direction,2821,,,,,2022-06-27 19:37:14,58997
5ce6fbd9a76bf00019cfd467,ma_choice_v4_social_pilot1,5ce6fbd9a76bf00019cfd467,1,Number of other people present,0,5 people,8 people,direction,2512,,,,,2022-06-27 19:37:16,59003
5ce6fbd9a76bf00019cfd467,ma_choice_v4_social_pilot1,5ce6fbd9a76bf00019cfd467,1,Number of other people present,0,8 people,10 people,direction,2155,,,,,2022-06-27 19:37:18,59010
5ce6fbd9a76bf00019cfd467,ma_choice_v4_social_pilot1,5ce6fbd9a76bf00019cfd467,1,Number of other people present,0,10 people,12 people,direction,3291,,,,,2022-06-27 19:37:22,59019
5ce6fbd9a76bf00019cfd467,ma_choice_v4_social_pilot1,5ce6fbd9a76bf00019cfd467,2,Indoors vs. outdoors,0,All Indoors,All Outdoors,direction,18710,,,,,2022-06-27 19:37:41,59064
5ce6fbd9a76bf00019cfd467,ma_choice_v4_social_pilot1,5ce6fbd9a76bf00019cfd467,2,Indoors vs. outdoors,0,All Indoors,Mostly Indoors,direction,3772,,,,,2022-06-27 19:37:45,59079
5ce6fbd9a76bf00019cfd467,ma_choice_v4_social_pilot1,5ce6fbd9a76bf00019cfd467,2,Indoors vs. outdoors,1,Mostly Indoors,Half Indoors and Half Outdoors,direction,3532,,,,,2022-06-27 19:37:49,59085
5ce6fbd9a76bf00019cfd467,ma_choice_v4_social_pilot1,5ce6fbd9a76bf00019cfd467,2,Indoors vs. outdoors,0,Half Indoors and Half Outdoors,Mostly Outdoors,direction,2323,,,,,2022-06-27 19:37:51,59092
5ce6fbd9a76bf00019cfd467,ma_choice_v4_social_pilot1,5ce6fbd9a76bf00019cfd467,2,Indoors vs. outdoors,1,Mostly Outdoors,All Outdoors,direction,3972,,,,,2022-06-27 19:37:55,59103
5ce6fbd9a76bf00019cfd467,ma_choice_v4_social_pilot1,5ce6fbd9a76bf00019cfd467,3,Amount of physical activity,0,None,A Lot,direction,2301,,,,,2022-06-27 19:37:59,59110
5ce6fbd9a76bf00019cfd467,ma_choice_v4_social_pilot1,5ce6fbd9a76bf00019cfd467,3,Amount of physical activity,0,None,A Little,direction,3131,,,,,2022-06-27 19:38:02,59120
5ce6fbd9a76bf00019cfd467,ma_choice_v4_social_pilot1,5ce6fbd9a76bf00019cfd467,3,Amount of physical activity,0,A Little,A Moderate Amount,direction,1961,,,,,2022-06-27 19:38:04,59127
5ce6fbd9a76bf00019cfd467,ma_choice_v4_social_pilot1,5ce6fbd9a76bf00019cfd467,3,Amount of physical activity,0,A Moderate Amount,A Lot,direction,1804,,,,,2022-06-27 19:38:06,59132
5ce6fbd9a76bf00019cfd467,ma_choice_v4_social_pilot1,5ce6fbd9a76bf00019cfd467,4,Duration,0,30 minutes,90 minutes,direction,2941,,,,,2022-06-27 19:38:10,59141
5ce6fbd9a76bf00019cfd467,ma_choice_v4_social_pilot1,5ce6fbd9a76bf00019cfd467,4,Duration,0,30 minutes,50 minutes,direction,1956,,,,,2022-06-27 19:38:12,59148
5ce6fbd9a76bf00019cfd467,ma_choice_v4_social_pilot1,5ce6fbd9a76bf00019cfd467,4,Duration,0,50 minutes,60 minutes,direction,2268,,,,,2022-06-27 19:38:14,59154
5ce6fbd9a76bf00019cfd467,ma_choice_v4_social_pilot1,5ce6fbd9a76bf00019cfd467,4,Duration,0,60 minutes,80 minutes,direction,1732,,,,,2022-06-27 19:38:16,59161
5ce6fbd9a76bf00019cfd467,ma_choice_v4_social_pilot1,5ce6fbd9a76bf00019cfd467,4,Duration,0,80 minutes,90 minutes,direction,2100,,,,,2022-06-27 19:38:18,59165
5ce6fbd9a76bf00019cfd467,ma_choice_v4_social_pilot1,5ce6fbd9a76bf00019cfd467,5,Opportunity to socialize,1,None,A Lot,direction,2718,,,,,2022-06-27 19:38:22,59174
5ce6fbd9a76bf00019cfd467,ma_choice_v4_social_pilot1,5ce6fbd9a76bf00019cfd467,5,Opportunity to socialize,1,None,A Little,direction,2340,,,,,2022-06-27 19:38:24,59179
613d0826db1c3687ad919ce4,ma_choice_v4_social_pilot1,613d0826db1c3687ad919ce4,2,Amount of food present,100,,,wad_att_rating,3641,,,,,2022-06-27 19:38:24,59181
5ce6fbd9a76bf00019cfd467,ma_choice_v4_social_pilot1,5ce6fbd9a76bf00019cfd467,5,Opportunity to socialize,1,A Little,A Moderate Amount,direction,2243,,,,,2022-06-27 19:38:26,59186
613d0826db1c3687ad919ce4,ma_choice_v4_social_pilot1,613d0826db1c3687ad919ce4,6,Indoors vs. outdoors,0,,,wad_att_rating,2245,,,,,2022-06-27 19:38:26,59187
5ce6fbd9a76bf00019cfd467,ma_choice_v4_social_pilot1,5ce6fbd9a76bf00019cfd467,5,Opportunity to socialize,0,A Moderate Amount,A Lot,direction,1675,,,,,2022-06-27 19:38:28,59190
613d0826db1c3687ad919ce4,ma_choice_v4_social_pilot1,613d0826db1c3687ad919ce4,1,Amount of alcohol present,20,,,wad_att_rating,5286,,,,,2022-06-27 19:38:32,59196
5ce6fbd9a76bf00019cfd467,ma_choice_v4_social_pilot1,5ce6fbd9a76bf00019cfd467,6,Distance from home,0,5 min away,60 min away,direction,2717,,,,,2022-06-27 19:38:32,59197
5ce6fbd9a76bf00019cfd467,ma_choice_v4_social_pilot1,5ce6fbd9a76bf00019cfd467,6,Distance from home,0,5 min away,20 min away,direction,1699,,,,,2022-06-27 19:38:34,59201
613d0826db1c3687ad919ce4,ma_choice_v4_social_pilot1,613d0826db1c3687ad919ce4,3,Number of other people present,11,,,wad_att_rating,2595,,,,,2022-06-27 19:38:34,59203
613d0826db1c3687ad919ce4,ma_choice_v4_social_pilot1,613d0826db1c3687ad919ce4,7,Amount of music,0,,,wad_att_rating,1510,,,,,2022-06-27 19:38:36,59205
613d0826db1c3687ad919ce4,ma_choice_v4_social_pilot1,613d0826db1c3687ad919ce4,4,Duration,0,,,wad_att_rating,1440,,,,,2022-06-27 19:38:37,59209
5ce6fbd9a76bf00019cfd467,ma_choice_v4_social_pilot1,5ce6fbd9a76bf00019cfd467,6,Distance from home,0,20 min away,35 min away,direction,3819,,,,,2022-06-27 19:38:37,59210
613d0826db1c3687ad919ce4,ma_choice_v4_social_pilot1,613d0826db1c3687ad919ce4,8,Opportunity to socialize,0,,,wad_att_rating,2941,,,,,2022-06-27 19:38:40,59216
5ce6fbd9a76bf00019cfd467,ma_choice_v4_social_pilot1,5ce6fbd9a76bf00019cfd467,6,Distance from home,0,35 min away,45 min away,direction,4516,,,,,2022-06-27 19:38:42,59219
5ce6fbd9a76bf00019cfd467,ma_choice_v4_social_pilot1,5ce6fbd9a76bf00019cfd467,6,Distance from home,0,45 min away,60 min away,direction,2346,,,,,2022-06-27 19:38:44,59222
613d0826db1c3687ad919ce4,ma_choice_v4_social_pilot1,613d0826db1c3687ad919ce4,0,Distance from home,25,,,wad_att_rating,4203,,,,,2022-06-27 19:38:44,59223
613d0826db1c3687ad919ce4,ma_choice_v4_social_pilot1,613d0826db1c3687ad919ce4,5,Amount of physical activity,0,,,wad_att_rating,1291,,,,,2022-06-27 19:38:46,59225
5ce6fbd9a76bf00019cfd467,ma_choice_v4_social_pilot1,5ce6fbd9a76bf00019cfd467,7,Amount of music,0,None,A Lot,direction,3541,,,,,2022-06-27 19:38:49,59231
5ce6fbd9a76bf00019cfd467,ma_choice_v4_social_pilot1,5ce6fbd9a76bf00019cfd467,7,Amount of music,1,None,A Little,direction,1754,,,,,2022-06-27 19:38:51,59234
5ce6fbd9a76bf00019cfd467,ma_choice_v4_social_pilot1,5ce6fbd9a76bf00019cfd467,7,Amount of music,1,A Little,A Moderate Amount,direction,1852,,,,,2022-06-27 19:38:53,59235
5ce6fbd9a76bf00019cfd467,ma_choice_v4_social_pilot1,5ce6fbd9a76bf00019cfd467,7,Amount of music,0,A Moderate Amount,A Lot,direction,1791,,,,,2022-06-27 19:38:54,59239
5ce6fbd9a76bf00019cfd467,ma_choice_v4_social_pilot1,5ce6fbd9a76bf00019cfd467,8,Amount of food present,1,None,A Lot,direction,1844,,,,,2022-06-27 19:38:57,59246
5ce6fbd9a76bf00019cfd467,ma_choice_v4_social_pilot1,5ce6fbd9a76bf00019cfd467,8,Amount of food present,1,None,A Little,direction,1820,,,,,2022-06-27 19:38:59,59249
5ce6fbd9a76bf00019cfd467,ma_choice_v4_social_pilot1,5ce6fbd9a76bf00019cfd467,8,Amount of food present,1,A Little,A Moderate Amount,direction,2115,,,,,2022-06-27 19:39:01,59256
5ce6fbd9a76bf00019cfd467,ma_choice_v4_social_pilot1,5ce6fbd9a76bf00019cfd467,8,Amount of food present,0,A Moderate Amount,A Lot,direction,2121,,,,,2022-06-27 19:39:03,59259
613d0826db1c3687ad919ce4,ma_choice_v4_social_pilot1,613d0826db1c3687ad919ce4,0,Distance from home,1,,,ew_att_rating,8458,,,,,2022-06-27 19:39:06,59266
613d0826db1c3687ad919ce4,ma_choice_v4_social_pilot1,613d0826db1c3687ad919ce4,0,Amount of food present,1,,,ew_att_rating,8458,,,,,2022-06-27 19:39:06,59267
613d0826db1c3687ad919ce4,ma_choice_v4_social_pilot1,613d0826db1c3687ad919ce4,0,Amount of food present,1,,,lex_att_rating,7400,,,,,2022-06-27 19:39:17,59295
613d0826db1c3687ad919ce4,ma_choice_v4_social_pilot1,613d0826db1c3687ad919ce4,0,Indoors vs. outdoors,1,All Indoors,All Outdoors,direction,47543,,,,,2022-06-27 19:40:35,59442
613d0826db1c3687ad919ce4,ma_choice_v4_social_pilot1,613d0826db1c3687ad919ce4,0,Indoors vs. outdoors,0,All Indoors,Mostly Indoors,direction,14997,,,,,2022-06-27 19:40:49,59472
62b9ac142a506642b5e0d9fb,ma_choice_v4_social_pilot1,62b9ac142a506642b5e0d9fb,0,Amount of food present,1,,,ew_att_rating,19360,,,,,2022-06-27 19:40:55,59481
62b9ac142a506642b5e0d9fb,ma_choice_v4_social_pilot1,62b9ac142a506642b5e0d9fb,0,Amount of physical activity,1,,,ew_att_rating,19360,,,,,2022-06-27 19:40:55,59482
62b9ac142a506642b5e0d9fb,ma_choice_v4_social_pilot1,62b9ac142a506642b5e0d9fb,0,Duration,1,,,ew_att_rating,19360,,,,,2022-06-27 19:40:55,59483
62b9ac142a506642b5e0d9fb,ma_choice_v4_social_pilot1,62b9ac142a506642b5e0d9fb,0,Distance from home,1,,,ew_att_rating,19360,,,,,2022-06-27 19:40:55,59484
613d0826db1c3687ad919ce4,ma_choice_v4_social_pilot1,613d0826db1c3687ad919ce4,0,Indoors vs. outdoors,0,Mostly Indoors,Half Indoors and Half Outdoors,direction,9247,,,,,2022-06-27 19:40:59,59491
613d0826db1c3687ad919ce4,ma_choice_v4_social_pilot1,613d0826db1c3687ad919ce4,0,Indoors vs. outdoors,0,Half Indoors and Half Outdoors,Mostly Outdoors,direction,4539,,,,,2022-06-27 19:41:03,59503
613d0826db1c3687ad919ce4,ma_choice_v4_social_pilot1,613d0826db1c3687ad919ce4,0,Indoors vs. outdoors,0,Mostly Outdoors,All Outdoors,direction,3105,,,,,2022-06-27 19:41:06,59510
62b9ac142a506642b5e0d9fb,ma_choice_v4_social_pilot1,62b9ac142a506642b5e0d9fb,4,Duration,87,,,wad_att_rating,6764,,,,,2022-06-27 19:41:10,59522
62b9ac142a506642b5e0d9fb,ma_choice_v4_social_pilot1,62b9ac142a506642b5e0d9fb,1,Amount of alcohol present,0,,,wad_att_rating,3250,,,,,2022-06-27 19:41:13,59530
62b9ac142a506642b5e0d9fb,ma_choice_v4_social_pilot1,62b9ac142a506642b5e0d9fb,8,Opportunity to socialize,0,,,wad_att_rating,1287,,,,,2022-06-27 19:41:14,59533
62b9ac142a506642b5e0d9fb,ma_choice_v4_social_pilot1,62b9ac142a506642b5e0d9fb,7,Amount of music,0,,,wad_att_rating,1251,,,,,2022-06-27 19:41:15,59538
613d0826db1c3687ad919ce4,ma_choice_v4_social_pilot1,613d0826db1c3687ad919ce4,1,Duration,1,30 minutes,90 minutes,direction,9443,,,,,2022-06-27 19:41:17,59542
613d0826db1c3687ad919ce4,ma_choice_v4_social_pilot1,613d0826db1c3687ad919ce4,1,Duration,1,30 minutes,50 minutes,direction,2605,,,,,2022-06-27 19:41:20,59549
62b9ac142a506642b5e0d9fb,ma_choice_v4_social_pilot1,62b9ac142a506642b5e0d9fb,2,Amount of food present,87,,,wad_att_rating,5273,,,,,2022-06-27 19:41:21,59550
613d0826db1c3687ad919ce4,ma_choice_v4_social_pilot1,613d0826db1c3687ad919ce4,1,Duration,1,50 minutes,60 minutes,direction,2524,,,,,2022-06-27 19:41:22,59554
613d0826db1c3687ad919ce4,ma_choice_v4_social_pilot1,613d0826db1c3687ad919ce4,1,Duration,0,60 minutes,80 minutes,direction,2659,,,,,2022-06-27 19:41:25,59563
62b9ac142a506642b5e0d9fb,ma_choice_v4_social_pilot1,62b9ac142a506642b5e0d9fb,0,Distance from home,88,,,wad_att_rating,4917,,,,,2022-06-27 19:41:26,59565
62b9ac142a506642b5e0d9fb,ma_choice_v4_social_pilot1,62b9ac142a506642b5e0d9fb,6,Indoors vs. outdoors,0,,,wad_att_rating,1373,,,,,2022-06-27 19:41:27,59571
613d0826db1c3687ad919ce4,ma_choice_v4_social_pilot1,613d0826db1c3687ad919ce4,1,Duration,0,80 minutes,90 minutes,direction,3128,,,,,2022-06-27 19:41:28,59572
62b9ac142a506642b5e0d9fb,ma_choice_v4_social_pilot1,62b9ac142a506642b5e0d9fb,5,Amount of physical activity,62,,,wad_att_rating,5420,,,,,2022-06-27 19:41:32,59587
613d0826db1c3687ad919ce4,ma_choice_v4_social_pilot1,613d0826db1c3687ad919ce4,2,Opportunity to socialize,0,None,A Lot,direction,2900,,,,,2022-06-27 19:41:33,59588
62b9ac142a506642b5e0d9fb,ma_choice_v4_social_pilot1,62b9ac142a506642b5e0d9fb,3,Number of other people present,0,,,wad_att_rating,1605,,,,,2022-06-27 19:41:34,59594
613d0826db1c3687ad919ce4,ma_choice_v4_social_pilot1,613d0826db1c3687ad919ce4,2,Opportunity to socialize,1,None,A Little,direction,5357,,,,,2022-06-27 19:41:38,59606
613d0826db1c3687ad919ce4,ma_choice_v4_social_pilot1,613d0826db1c3687ad919ce4,2,Opportunity to socialize,0,A Little,A Moderate Amount,direction,3150,,,,,2022-06-27 19:41:41,59615
613d0826db1c3687ad919ce4,ma_choice_v4_social_pilot1,613d0826db1c3687ad919ce4,2,Opportunity to socialize,0,A Moderate Amount,A Lot,direction,2590,,,,,2022-06-27 19:41:44,59622
613d0826db1c3687ad919ce4,ma_choice_v4_social_pilot1,613d0826db1c3687ad919ce4,3,Amount of food present,1,None,A Lot,direction,2021,,,,,2022-06-27 19:41:47,59631
613d0826db1c3687ad919ce4,ma_choice_v4_social_pilot1,613d0826db1c3687ad919ce4,3,Amount of food present,1,None,A Little,direction,2569,,,,,2022-06-27 19:41:50,59636
62b9ac142a506642b5e0d9fb,ma_choice_v4_social_pilot1,62b9ac142a506642b5e0d9fb,0,Amount of food present,1,,,lex_att_rating,11192,,,,,2022-06-27 19:41:51,59642
613d0826db1c3687ad919ce4,ma_choice_v4_social_pilot1,613d0826db1c3687ad919ce4,3,Amount of food present,1,A Little,A Moderate Amount,direction,2013,,,,,2022-06-27 19:41:52,59643
613d0826db1c3687ad919ce4,ma_choice_v4_social_pilot1,613d0826db1c3687ad919ce4,3,Amount of food present,1,A Moderate Amount,A Lot,direction,2726,,,,,2022-06-27 19:41:55,59649
613d0826db1c3687ad919ce4,ma_choice_v4_social_pilot1,613d0826db1c3687ad919ce4,4,Number of other people present,0,3 people,12 people,direction,4538,,,,,2022-06-27 19:42:01,59662
613d0826db1c3687ad919ce4,ma_choice_v4_social_pilot1,613d0826db1c3687ad919ce4,4,Number of other people present,1,3 people,5 people,direction,2792,,,,,2022-06-27 19:42:03,59670
613d0826db1c3687ad919ce4,ma_choice_v4_social_pilot1,613d0826db1c3687ad919ce4,4,Number of other people present,0,5 people,8 people,direction,2123,,,,,2022-06-27 19:42:06,59672
613d0826db1c3687ad919ce4,ma_choice_v4_social_pilot1,613d0826db1c3687ad919ce4,4,Number of other people present,0,8 people,10 people,direction,2021,,,,,2022-06-27 19:42:08,59676
613d0826db1c3687ad919ce4,ma_choice_v4_social_pilot1,613d0826db1c3687ad919ce4,4,Number of other people present,0,10 people,12 people,direction,2259,,,,,2022-06-27 19:42:10,59684
613d0826db1c3687ad919ce4,ma_choice_v4_social_pilot1,613d0826db1c3687ad919ce4,5,Amount of alcohol present,0,None,A Lot,direction,1302,,,,,2022-06-27 19:42:12,59690
613d0826db1c3687ad919ce4,ma_choice_v4_social_pilot1,613d0826db1c3687ad919ce4,5,Amount of alcohol present,0,None,A Little,direction,1342,,,,,2022-06-27 19:42:14,59693
613d0826db1c3687ad919ce4,ma_choice_v4_social_pilot1,613d0826db1c3687ad919ce4,5,Amount of alcohol present,0,A Little,A Moderate Amount,direction,1828,,,,,2022-06-27 19:42:16,59697
613d0826db1c3687ad919ce4,ma_choice_v4_social_pilot1,613d0826db1c3687ad919ce4,5,Amount of alcohol present,0,A Moderate Amount,A Lot,direction,2383,,,,,2022-06-27 19:42:18,59703
613d0826db1c3687ad919ce4,ma_choice_v4_social_pilot1,613d0826db1c3687ad919ce4,6,Amount of music,1,None,A Lot,direction,4885,,,,,2022-06-27 19:42:24,59717
613d0826db1c3687ad919ce4,ma_choice_v4_social_pilot1,613d0826db1c3687ad919ce4,6,Amount of music,1,None,A Little,direction,1963,,,,,2022-06-27 19:42:26,59720
613d0826db1c3687ad919ce4,ma_choice_v4_social_pilot1,613d0826db1c3687ad919ce4,6,Amount of music,1,A Little,A Moderate Amount,direction,1488,,,,,2022-06-27 19:42:28,59722
613d0826db1c3687ad919ce4,ma_choice_v4_social_pilot1,613d0826db1c3687ad919ce4,6,Amount of music,1,A Moderate Amount,A Lot,direction,2578,,,,,2022-06-27 19:42:30,59725
613d0826db1c3687ad919ce4,ma_choice_v4_social_pilot1,613d0826db1c3687ad919ce4,7,Distance from home,0,5 min away,60 min away,direction,2406,,,,,2022-06-27 19:42:33,59732
613d0826db1c3687ad919ce4,ma_choice_v4_social_pilot1,613d0826db1c3687ad919ce4,7,Distance from home,0,5 min away,20 min away,direction,1462,,,,,2022-06-27 19:42:35,59734
613d0826db1c3687ad919ce4,ma_choice_v4_social_pilot1,613d0826db1c3687ad919ce4,7,Distance from home,0,20 min away,35 min away,direction,1380,,,,,2022-06-27 19:42:36,59740
5c0ec45b05ed100001f7861e,ma_choice_v4_social_pilot1,5c0ec45b05ed100001f7861e,0,Number of other people present,1,3 people,12 people,direction,28653,,,,,2022-06-27 19:42:37,59741
613d0826db1c3687ad919ce4,ma_choice_v4_social_pilot1,613d0826db1c3687ad919ce4,7,Distance from home,0,35 min away,45 min away,direction,2259,,,,,2022-06-27 19:42:39,59745
613d0826db1c3687ad919ce4,ma_choice_v4_social_pilot1,613d0826db1c3687ad919ce4,7,Distance from home,0,45 min away,60 min away,direction,1546,,,,,2022-06-27 19:42:40,59747
613d0826db1c3687ad919ce4,ma_choice_v4_social_pilot1,613d0826db1c3687ad919ce4,8,Amount of physical activity,0,None,A Lot,direction,2569,,,,,2022-06-27 19:42:44,59756
613d0826db1c3687ad919ce4,ma_choice_v4_social_pilot1,613d0826db1c3687ad919ce4,8,Amount of physical activity,1,None,A Little,direction,1596,,,,,2022-06-27 19:42:45,59759
613d0826db1c3687ad919ce4,ma_choice_v4_social_pilot1,613d0826db1c3687ad919ce4,8,Amount of physical activity,1,A Little,A Moderate Amount,direction,3330,,,,,2022-06-27 19:42:49,59764
613d0826db1c3687ad919ce4,ma_choice_v4_social_pilot1,613d0826db1c3687ad919ce4,8,Amount of physical activity,0,A Moderate Amount,A Lot,direction,1808,,,,,2022-06-27 19:42:50,59767
5c0ec45b05ed100001f7861e,ma_choice_v4_social_pilot1,5c0ec45b05ed100001f7861e,0,Number of other people present,1,3 people,5 people,direction,13654,,,,,2022-06-27 19:42:51,59769
5c0ec45b05ed100001f7861e,ma_choice_v4_social_pilot1,5c0ec45b05ed100001f7861e,0,Number of other people present,1,5 people,8 people,direction,5948,,,,,2022-06-27 19:42:57,59778
5c0ec45b05ed100001f7861e,ma_choice_v4_social_pilot1,5c0ec45b05ed100001f7861e,0,Number of other people present,0,8 people,10 people,direction,15959,,,,,2022-06-27 19:43:13,59804
5c0ec45b05ed100001f7861e,ma_choice_v4_social_pilot1,5c0ec45b05ed100001f7861e,0,Number of other people present,0,10 people,12 people,direction,4728,,,,,2022-06-27 19:43:17,59812
5c0ec45b05ed100001f7861e,ma_choice_v4_social_pilot1,5c0ec45b05ed100001f7861e,1,Amount of alcohol present,0,None,A Lot,direction,14769,,,,,2022-06-27 19:43:35,59849
5c0ec45b05ed100001f7861e,ma_choice_v4_social_pilot1,5c0ec45b05ed100001f7861e,1,Amount of alcohol present,0,None,A Little,direction,6658,,,,,2022-06-27 19:43:42,59864
5c0ec45b05ed100001f7861e,ma_choice_v4_social_pilot1,5c0ec45b05ed100001f7861e,1,Amount of alcohol present,0,A Little,A Moderate Amount,direction,3816,,,,,2022-06-27 19:43:46,59872
5c0ec45b05ed100001f7861e,ma_choice_v4_social_pilot1,5c0ec45b05ed100001f7861e,1,Amount of alcohol present,0,A Moderate Amount,A Lot,direction,1758,,,,,2022-06-27 19:43:47,59880
5dabb030847579001115ed18,ma_choice_v4_social_pilot1,5dabb030847579001115ed18,0,Amount of food present,1,,,lex_att_rating,4738,,,,,2022-06-27 19:43:48,59881
5c0ec45b05ed100001f7861e,ma_choice_v4_social_pilot1,5c0ec45b05ed100001f7861e,2,Amount of music,0,None,A Lot,direction,5814,,,,,2022-06-27 19:43:54,59887
5dabb030847579001115ed18,ma_choice_v4_social_pilot1,5dabb030847579001115ed18,7,Amount of music,76,,,wad_att_rating,3613,,,,,2022-06-27 19:43:54,59888
5c0ec45b05ed100001f7861e,ma_choice_v4_social_pilot1,5c0ec45b05ed100001f7861e,2,Amount of music,1,None,A Little,direction,1524,,,,,2022-06-27 19:43:56,59891
5dabb030847579001115ed18,ma_choice_v4_social_pilot1,5dabb030847579001115ed18,3,Number of other people present,26,,,wad_att_rating,2537,,,,,2022-06-27 19:43:57,59893
5dabb030847579001115ed18,ma_choice_v4_social_pilot1,5dabb030847579001115ed18,8,Opportunity to socialize,25,,,wad_att_rating,2803,,,,,2022-06-27 19:44:00,59897
5dabb030847579001115ed18,ma_choice_v4_social_pilot1,5dabb030847579001115ed18,1,Amount of alcohol present,77,,,wad_att_rating,3398,,,,,2022-06-27 19:44:03,59901
5c0ec45b05ed100001f7861e,ma_choice_v4_social_pilot1,5c0ec45b05ed100001f7861e,2,Amount of music,1,A Little,A Moderate Amount,direction,8351,,,,,2022-06-27 19:44:04,59902
5c0ec45b05ed100001f7861e,ma_choice_v4_social_pilot1,5c0ec45b05ed100001f7861e,2,Amount of music,0,A Moderate Amount,A Lot,direction,1153,,,,,2022-06-27 19:44:05,59904
5dabb030847579001115ed18,ma_choice_v4_social_pilot1,5dabb030847579001115ed18,4,Duration,0,,,wad_att_rating,2251,,,,,2022-06-27 19:44:05,59906
5dabb030847579001115ed18,ma_choice_v4_social_pilot1,5dabb030847579001115ed18,5,Amount of physical activity,0,,,wad_att_rating,1141,,,,,2022-06-27 19:44:07,59908
5dabb030847579001115ed18,ma_choice_v4_social_pilot1,5dabb030847579001115ed18,6,Indoors vs. outdoors,0,,,wad_att_rating,1384,,,,,2022-06-27 19:44:08,59911
5dabb030847579001115ed18,ma_choice_v4_social_pilot1,5dabb030847579001115ed18,2,Amount of food present,78,,,wad_att_rating,2547,,,,,2022-06-27 19:44:11,59915
5dabb030847579001115ed18,ma_choice_v4_social_pilot1,5dabb030847579001115ed18,0,Distance from home,0,,,wad_att_rating,1121,,,,,2022-06-27 19:44:12,59916
5c0ec45b05ed100001f7861e,ma_choice_v4_social_pilot1,5c0ec45b05ed100001f7861e,3,Distance from home,0,5 min away,60 min away,direction,6848,,,,,2022-06-27 19:44:14,59920
5c0ec45b05ed100001f7861e,ma_choice_v4_social_pilot1,5c0ec45b05ed100001f7861e,3,Distance from home,0,5 min away,20 min away,direction,4663,,,,,2022-06-27 19:44:18,59924
5c0ec45b05ed100001f7861e,ma_choice_v4_social_pilot1,5c0ec45b05ed100001f7861e,3,Distance from home,0,20 min away,35 min away,direction,4069,,,,,2022-06-27 19:44:23,59930
5dabb030847579001115ed18,ma_choice_v4_social_pilot1,5dabb030847579001115ed18,0,Amount of alcohol present,1,,,ew_att_rating,6548,,,,,2022-06-27 19:44:24,59934
5dabb030847579001115ed18,ma_choice_v4_social_pilot1,5dabb030847579001115ed18,0,Amount of music,1,,,ew_att_rating,6548,,,,,2022-06-27 19:44:24,59935
5dabb030847579001115ed18,ma_choice_v4_social_pilot1,5dabb030847579001115ed18,0,Amount of food present,1,,,ew_att_rating,6548,,,,,2022-06-27 19:44:24,59936
5c0ec45b05ed100001f7861e,ma_choice_v4_social_pilot1,5c0ec45b05ed100001f7861e,3,Distance from home,0,35 min away,45 min away,direction,3856,,,,,2022-06-27 19:44:26,59943
5c0ec45b05ed100001f7861e,ma_choice_v4_social_pilot1,5c0ec45b05ed100001f7861e,3,Distance from home,0,45 min away,60 min away,direction,3406,,,,,2022-06-27 19:44:30,59950
5c0ec45b05ed100001f7861e,ma_choice_v4_social_pilot1,5c0ec45b05ed100001f7861e,4,Indoors vs. outdoors,1,All Indoors,All Outdoors,direction,13205,,,,,2022-06-27 19:44:45,59972
5c0ec45b05ed100001f7861e,ma_choice_v4_social_pilot1,5c0ec45b05ed100001f7861e,4,Indoors vs. outdoors,1,All Indoors,Mostly Indoors,direction,3644,,,,,2022-06-27 19:44:49,59981
5c0ec45b05ed100001f7861e,ma_choice_v4_social_pilot1,5c0ec45b05ed100001f7861e,4,Indoors vs. outdoors,1,Mostly Indoors,Half Indoors and Half Outdoors,direction,3983,,,,,2022-06-27 19:44:53,59988
5dabb030847579001115ed18,ma_choice_v4_social_pilot1,5dabb030847579001115ed18,0,Amount of music,1,None,A Lot,direction,8827,,,,,2022-06-27 19:44:54,59989
5c0ec45b05ed100001f7861e,ma_choice_v4_social_pilot1,5c0ec45b05ed100001f7861e,4,Indoors vs. outdoors,1,Half Indoors and Half Outdoors,Mostly Outdoors,direction,3768,,,,,2022-06-27 19:44:57,59993
5dabb030847579001115ed18,ma_choice_v4_social_pilot1,5dabb030847579001115ed18,0,Amount of music,1,None,A Little,direction,7028,,,,,2022-06-27 19:45:01,60003
5c0ec45b05ed100001f7861e,ma_choice_v4_social_pilot1,5c0ec45b05ed100001f7861e,4,Indoors vs. outdoors,1,Mostly Outdoors,All Outdoors,direction,6164,,,,,2022-06-27 19:45:03,60008
5dabb030847579001115ed18,ma_choice_v4_social_pilot1,5dabb030847579001115ed18,0,Amount of music,1,A Little,A Moderate Amount,direction,3367,,,,,2022-06-27 19:45:05,60011
5dabb030847579001115ed18,ma_choice_v4_social_pilot1,5dabb030847579001115ed18,0,Amount of music,1,A Moderate Amount,A Lot,direction,2747,,,,,2022-06-27 19:45:07,60016
5c0ec45b05ed100001f7861e,ma_choice_v4_social_pilot1,5c0ec45b05ed100001f7861e,5,Duration,1,30 minutes,90 minutes,direction,5204,,,,,2022-06-27 19:45:09,60019
5dabb030847579001115ed18,ma_choice_v4_social_pilot1,5dabb030847579001115ed18,1,Amount of alcohol present,1,None,A Lot,direction,2620,,,,,2022-06-27 19:45:11,60023
5c0ec45b05ed100001f7861e,ma_choice_v4_social_pilot1,5c0ec45b05ed100001f7861e,5,Duration,1,30 minutes,50 minutes,direction,2582,,,,,2022-06-27 19:45:12,60027
5dabb030847579001115ed18,ma_choice_v4_social_pilot1,5dabb030847579001115ed18,1,Amount of alcohol present,1,None,A Little,direction,2099,,,,,2022-06-27 19:45:13,60030
5dabb030847579001115ed18,ma_choice_v4_social_pilot1,5dabb030847579001115ed18,1,Amount of alcohol present,1,A Little,A Moderate Amount,direction,1912,,,,,2022-06-27 19:45:15,60033
5c0ec45b05ed100001f7861e,ma_choice_v4_social_pilot1,5c0ec45b05ed100001f7861e,5,Duration,1,50 minutes,60 minutes,direction,3433,,,,,2022-06-27 19:45:15,60034
5c0ec45b05ed100001f7861e,ma_choice_v4_social_pilot1,5c0ec45b05ed100001f7861e,5,Duration,0,60 minutes,80 minutes,direction,1252,,,,,2022-06-27 19:45:17,60038
5dabb030847579001115ed18,ma_choice_v4_social_pilot1,5dabb030847579001115ed18,1,Amount of alcohol present,1,A Moderate Amount,A Lot,direction,2494,,,,,2022-06-27 19:45:18,60040
5c0ec45b05ed100001f7861e,ma_choice_v4_social_pilot1,5c0ec45b05ed100001f7861e,5,Duration,0,80 minutes,90 minutes,direction,1976,,,,,2022-06-27 19:45:19,60043
5c0ec45b05ed100001f7861e,ma_choice_v4_social_pilot1,5c0ec45b05ed100001f7861e,6,Amount of food present,1,None,A Lot,direction,1962,,,,,2022-06-27 19:45:22,60047
5dabb030847579001115ed18,ma_choice_v4_social_pilot1,5dabb030847579001115ed18,2,Number of other people present,1,3 people,12 people,direction,2979,,,,,2022-06-27 19:45:22,60050
5c0ec45b05ed100001f7861e,ma_choice_v4_social_pilot1,5c0ec45b05ed100001f7861e,6,Amount of food present,1,None,A Little,direction,2379,,,,,2022-06-27 19:45:24,60057
5dabb030847579001115ed18,ma_choice_v4_social_pilot1,5dabb030847579001115ed18,2,Number of other people present,1,3 people,5 people,direction,2732,,,,,2022-06-27 19:45:25,60058
5c0ec45b05ed100001f7861e,ma_choice_v4_social_pilot1,5c0ec45b05ed100001f7861e,6,Amount of food present,1,A Little,A Moderate Amount,direction,2056,,,,,2022-06-27 19:45:26,60062
5dabb030847579001115ed18,ma_choice_v4_social_pilot1,5dabb030847579001115ed18,2,Number of other people present,1,5 people,8 people,direction,2999,,,,,2022-06-27 19:45:28,60066
5c0ec45b05ed100001f7861e,ma_choice_v4_social_pilot1,5c0ec45b05ed100001f7861e,6,Amount of food present,0,A Moderate Amount,A Lot,direction,2265,,,,,2022-06-27 19:45:28,60068
5dabb030847579001115ed18,ma_choice_v4_social_pilot1,5dabb030847579001115ed18,2,Number of other people present,1,8 people,10 people,direction,2352,,,,,2022-06-27 19:45:30,60072
5c0ec45b05ed100001f7861e,ma_choice_v4_social_pilot1,5c0ec45b05ed100001f7861e,7,Opportunity to socialize,0,None,A Lot,direction,1852,,,,,2022-06-27 19:45:31,60073
5c0ec45b05ed100001f7861e,ma_choice_v4_social_pilot1,5c0ec45b05ed100001f7861e,7,Opportunity to socialize,0,None,A Little,direction,817,,,,,2022-06-27 19:45:32,60076
5dabb030847579001115ed18,ma_choice_v4_social_pilot1,5dabb030847579001115ed18,2,Number of other people present,1,10 people,12 people,direction,2340,,,,,2022-06-27 19:45:33,60078
5c0ec45b05ed100001f7861e,ma_choice_v4_social_pilot1,5c0ec45b05ed100001f7861e,7,Opportunity to socialize,0,A Little,A Moderate Amount,direction,2591,,,,,2022-06-27 19:45:34,60082
5c0ec45b05ed100001f7861e,ma_choice_v4_social_pilot1,5c0ec45b05ed100001f7861e,7,Opportunity to socialize,0,A Moderate Amount,A Lot,direction,1142,,,,,2022-06-27 19:45:36,60084
5dabb030847579001115ed18,ma_choice_v4_social_pilot1,5dabb030847579001115ed18,3,Amount of physical activity,0,None,A Lot,direction,2617,,,,,2022-06-27 19:45:36,60087
5dabb030847579001115ed18,ma_choice_v4_social_pilot1,5dabb030847579001115ed18,3,Amount of physical activity,0,None,A Little,direction,2213,,,,,2022-06-27 19:45:39,60092
5c0ec45b05ed100001f7861e,ma_choice_v4_social_pilot1,5c0ec45b05ed100001f7861e,8,Amount of physical activity,1,None,A Lot,direction,2387,,,,,2022-06-27 19:45:39,60094
5dabb030847579001115ed18,ma_choice_v4_social_pilot1,5dabb030847579001115ed18,3,Amount of physical activity,0,A Little,A Moderate Amount,direction,2226,,,,,2022-06-27 19:45:41,60097
5c0ec45b05ed100001f7861e,ma_choice_v4_social_pilot1,5c0ec45b05ed100001f7861e,8,Amount of physical activity,1,None,A Little,direction,4017,,,,,2022-06-27 19:45:43,60101
5dabb030847579001115ed18,ma_choice_v4_social_pilot1,5dabb030847579001115ed18,3,Amount of physical activity,0,A Moderate Amount,A Lot,direction,2656,,,,,2022-06-27 19:45:44,60102
5c0ec45b05ed100001f7861e,ma_choice_v4_social_pilot1,5c0ec45b05ed100001f7861e,8,Amount of physical activity,1,A Little,A Moderate Amount,direction,1756,,,,,2022-06-27 19:45:45,60111
5c0ec45b05ed100001f7861e,ma_choice_v4_social_pilot1,5c0ec45b05ed100001f7861e,8,Amount of physical activity,1,A Moderate Amount,A Lot,direction,2053,,,,,2022-06-27 19:45:47,60116
5dabb030847579001115ed18,ma_choice_v4_social_pilot1,5dabb030847579001115ed18,4,Opportunity to socialize,1,None,A Lot,direction,3189,,,,,2022-06-27 19:45:48,60119
5dabb030847579001115ed18,ma_choice_v4_social_pilot1,5dabb030847579001115ed18,4,Opportunity to socialize,1,None,A Little,direction,2021,,,,,2022-06-27 19:45:50,60127
5dabb030847579001115ed18,ma_choice_v4_social_pilot1,5dabb030847579001115ed18,4,Opportunity to socialize,1,A Little,A Moderate Amount,direction,1824,,,,,2022-06-27 19:45:52,60129
5dabb030847579001115ed18,ma_choice_v4_social_pilot1,5dabb030847579001115ed18,4,Opportunity to socialize,0,A Moderate Amount,A Lot,direction,1923,,,,,2022-06-27 19:45:54,60137
5dabb030847579001115ed18,ma_choice_v4_social_pilot1,5dabb030847579001115ed18,5,Duration,1,30 minutes,90 minutes,direction,2380,,,,,2022-06-27 19:45:58,60147
5dabb030847579001115ed18,ma_choice_v4_social_pilot1,5dabb030847579001115ed18,5,Duration,1,30 minutes,50 minutes,direction,3087,,,,,2022-06-27 19:46:00,60151
5dabb030847579001115ed18,ma_choice_v4_social_pilot1,5dabb030847579001115ed18,5,Duration,1,50 minutes,60 minutes,direction,1724,,,,,2022-06-27 19:46:02,60155
5dabb030847579001115ed18,ma_choice_v4_social_pilot1,5dabb030847579001115ed18,5,Duration,1,60 minutes,80 minutes,direction,1742,,,,,2022-06-27 19:46:04,60160
5dabb030847579001115ed18,ma_choice_v4_social_pilot1,5dabb030847579001115ed18,5,Duration,0,80 minutes,90 minutes,direction,2818,,,,,2022-06-27 19:46:07,60168
5dabb030847579001115ed18,ma_choice_v4_social_pilot1,5dabb030847579001115ed18,6,Indoors vs. outdoors,1,All Indoors,All Outdoors,direction,5904,,,,,2022-06-27 19:46:14,60184
5dabb030847579001115ed18,ma_choice_v4_social_pilot1,5dabb030847579001115ed18,6,Indoors vs. outdoors,1,All Indoors,Mostly Indoors,direction,2629,,,,,2022-06-27 19:46:16,60188
5dabb030847579001115ed18,ma_choice_v4_social_pilot1,5dabb030847579001115ed18,6,Indoors vs. outdoors,1,Mostly Indoors,Half Indoors and Half Outdoors,direction,2469,,,,,2022-06-27 19:46:19,60195
5dabb030847579001115ed18,ma_choice_v4_social_pilot1,5dabb030847579001115ed18,6,Indoors vs. outdoors,0,Half Indoors and Half Outdoors,Mostly Outdoors,direction,3367,,,,,2022-06-27 19:46:22,60203
5dabb030847579001115ed18,ma_choice_v4_social_pilot1,5dabb030847579001115ed18,6,Indoors vs. outdoors,0,Mostly Outdoors,All Outdoors,direction,2163,,,,,2022-06-27 19:46:24,60209
5dabb030847579001115ed18,ma_choice_v4_social_pilot1,5dabb030847579001115ed18,7,Amount of food present,1,None,A Lot,direction,1797,,,,,2022-06-27 19:46:27,60215
5dabb030847579001115ed18,ma_choice_v4_social_pilot1,5dabb030847579001115ed18,7,Amount of food present,1,None,A Little,direction,1802,,,,,2022-06-27 19:46:29,60222
5dabb030847579001115ed18,ma_choice_v4_social_pilot1,5dabb030847579001115ed18,7,Amount of food present,1,A Little,A Moderate Amount,direction,1764,,,,,2022-06-27 19:46:31,60224
5dabb030847579001115ed18,ma_choice_v4_social_pilot1,5dabb030847579001115ed18,7,Amount of food present,1,A Moderate Amount,A Lot,direction,3332,,,,,2022-06-27 19:46:34,60233
5dabb030847579001115ed18,ma_choice_v4_social_pilot1,5dabb030847579001115ed18,8,Distance from home,0,5 min away,60 min away,direction,2243,,,,,2022-06-27 19:46:37,60239
5dabb030847579001115ed18,ma_choice_v4_social_pilot1,5dabb030847579001115ed18,8,Distance from home,0,5 min away,20 min away,direction,3069,,,,,2022-06-27 19:46:40,60246
5dabb030847579001115ed18,ma_choice_v4_social_pilot1,5dabb030847579001115ed18,8,Distance from home,0,20 min away,35 min away,direction,2069,,,,,2022-06-27 19:46:42,60252
5dabb030847579001115ed18,ma_choice_v4_social_pilot1,5dabb030847579001115ed18,8,Distance from home,0,35 min away,45 min away,direction,1961,,,,,2022-06-27 19:46:44,60255
5dabb030847579001115ed18,ma_choice_v4_social_pilot1,5dabb030847579001115ed18,8,Distance from home,0,45 min away,60 min away,direction,1882,,,,,2022-06-27 19:46:46,60259
62b9ac142a506642b5e0d9fb,ma_choice_v4_social_pilot1,62b9ac142a506642b5e0d9fb,0,Amount of alcohol present,1,None,A Lot,direction,20551,,,,,2022-06-27 19:48:06,60420
62b9ac142a506642b5e0d9fb,ma_choice_v4_social_pilot1,62b9ac142a506642b5e0d9fb,0,Amount of alcohol present,1,None,A Little,direction,13275,,,,,2022-06-27 19:48:19,60444
62b9ac142a506642b5e0d9fb,ma_choice_v4_social_pilot1,62b9ac142a506642b5e0d9fb,0,Amount of alcohol present,0,A Little,A Moderate Amount,direction,11699,,,,,2022-06-27 19:48:31,60461
62b9ac142a506642b5e0d9fb,ma_choice_v4_social_pilot1,62b9ac142a506642b5e0d9fb,0,Amount of alcohol present,0,A Moderate Amount,A Lot,direction,6518,,,,,2022-06-27 19:48:38,60471
62b9ac142a506642b5e0d9fb,ma_choice_v4_social_pilot1,62b9ac142a506642b5e0d9fb,1,Amount of food present,1,None,A Lot,direction,4253,,,,,2022-06-27 19:48:45,60479
62b9ac142a506642b5e0d9fb,ma_choice_v4_social_pilot1,62b9ac142a506642b5e0d9fb,1,Amount of food present,1,None,A Little,direction,5081,,,,,2022-06-27 19:48:50,60492
62b9ac142a506642b5e0d9fb,ma_choice_v4_social_pilot1,62b9ac142a506642b5e0d9fb,1,Amount of food present,1,A Little,A Moderate Amount,direction,3356,,,,,2022-06-27 19:48:53,60495
62b9ac142a506642b5e0d9fb,ma_choice_v4_social_pilot1,62b9ac142a506642b5e0d9fb,1,Amount of food present,1,A Moderate Amount,A Lot,direction,2970,,,,,2022-06-27 19:48:56,60501
62b9ac142a506642b5e0d9fb,ma_choice_v4_social_pilot1,62b9ac142a506642b5e0d9fb,2,Number of other people present,1,3 people,12 people,direction,7389,,,,,2022-06-27 19:49:06,60517
62b9ac142a506642b5e0d9fb,ma_choice_v4_social_pilot1,62b9ac142a506642b5e0d9fb,2,Number of other people present,1,3 people,5 people,direction,2591,,,,,2022-06-27 19:49:09,60524
62b9ac142a506642b5e0d9fb,ma_choice_v4_social_pilot1,62b9ac142a506642b5e0d9fb,2,Number of other people present,1,5 people,8 people,direction,2487,,,,,2022-06-27 19:49:11,60531
62b9ac142a506642b5e0d9fb,ma_choice_v4_social_pilot1,62b9ac142a506642b5e0d9fb,2,Number of other people present,1,8 people,10 people,direction,3827,,,,,2022-06-27 19:49:15,60537
62b9ac142a506642b5e0d9fb,ma_choice_v4_social_pilot1,62b9ac142a506642b5e0d9fb,2,Number of other people present,1,10 people,12 people,direction,5644,,,,,2022-06-27 19:49:21,60543
62b9ac142a506642b5e0d9fb,ma_choice_v4_social_pilot1,62b9ac142a506642b5e0d9fb,3,Indoors vs. outdoors,0,All Indoors,All Outdoors,direction,6585,,,,,2022-06-27 19:49:29,60553
62b9ac142a506642b5e0d9fb,ma_choice_v4_social_pilot1,62b9ac142a506642b5e0d9fb,3,Indoors vs. outdoors,1,All Indoors,Mostly Indoors,direction,5655,,,,,2022-06-27 19:49:35,60557
62b9ac142a506642b5e0d9fb,ma_choice_v4_social_pilot1,62b9ac142a506642b5e0d9fb,3,Indoors vs. outdoors,0,Mostly Indoors,Half Indoors and Half Outdoors,direction,5533,,,,,2022-06-27 19:49:40,60561
62b9ac142a506642b5e0d9fb,ma_choice_v4_social_pilot1,62b9ac142a506642b5e0d9fb,3,Indoors vs. outdoors,0,Half Indoors and Half Outdoors,Mostly Outdoors,direction,4923,,,,,2022-06-27 19:49:45,60567
62b9ac142a506642b5e0d9fb,ma_choice_v4_social_pilot1,62b9ac142a506642b5e0d9fb,3,Indoors vs. outdoors,0,Mostly Outdoors,All Outdoors,direction,5104,,,,,2022-06-27 19:49:50,60581
62b9ac142a506642b5e0d9fb,ma_choice_v4_social_pilot1,62b9ac142a506642b5e0d9fb,4,Amount of physical activity,0,None,A Lot,direction,5105,,,,,2022-06-27 19:49:58,60590
62b9ac142a506642b5e0d9fb,ma_choice_v4_social_pilot1,62b9ac142a506642b5e0d9fb,4,Amount of physical activity,1,None,A Little,direction,4430,,,,,2022-06-27 19:50:03,60598
62b9ac142a506642b5e0d9fb,ma_choice_v4_social_pilot1,62b9ac142a506642b5e0d9fb,4,Amount of physical activity,0,A Little,A Moderate Amount,direction,3847,,,,,2022-06-27 19:50:07,60601
62b9ac142a506642b5e0d9fb,ma_choice_v4_social_pilot1,62b9ac142a506642b5e0d9fb,4,Amount of physical activity,0,A Moderate Amount,A Lot,direction,4038,,,,,2022-06-27 19:50:11,60604
62b9ac142a506642b5e0d9fb,ma_choice_v4_social_pilot1,62b9ac142a506642b5e0d9fb,5,Duration,0,30 minutes,90 minutes,direction,4836,,,,,2022-06-27 19:50:18,60607
62b9ac142a506642b5e0d9fb,ma_choice_v4_social_pilot1,62b9ac142a506642b5e0d9fb,5,Duration,0,30 minutes,50 minutes,direction,3522,,,,,2022-06-27 19:50:21,60610
62b9ac142a506642b5e0d9fb,ma_choice_v4_social_pilot1,62b9ac142a506642b5e0d9fb,5,Duration,0,50 minutes,60 minutes,direction,2778,,,,,2022-06-27 19:50:24,60612
62b9ac142a506642b5e0d9fb,ma_choice_v4_social_pilot1,62b9ac142a506642b5e0d9fb,5,Duration,0,60 minutes,80 minutes,direction,3127,,,,,2022-06-27 19:50:27,60617
62b9ac142a506642b5e0d9fb,ma_choice_v4_social_pilot1,62b9ac142a506642b5e0d9fb,5,Duration,0,80 minutes,90 minutes,direction,2352,,,,,2022-06-27 19:50:30,60619
62b9ac142a506642b5e0d9fb,ma_choice_v4_social_pilot1,62b9ac142a506642b5e0d9fb,6,Distance from home,0,5 min away,60 min away,direction,2646,,,,,2022-06-27 19:50:34,60625
62b9ac142a506642b5e0d9fb,ma_choice_v4_social_pilot1,62b9ac142a506642b5e0d9fb,6,Distance from home,0,5 min away,20 min away,direction,2872,,,,,2022-06-27 19:50:37,60629
62b9ac142a506642b5e0d9fb,ma_choice_v4_social_pilot1,62b9ac142a506642b5e0d9fb,6,Distance from home,0,20 min away,35 min away,direction,2217,,,,,2022-06-27 19:50:39,60632
62b9ac142a506642b5e0d9fb,ma_choice_v4_social_pilot1,62b9ac142a506642b5e0d9fb,6,Distance from home,0,35 min away,45 min away,direction,4977,,,,,2022-06-27 19:50:44,60640
62b9ac142a506642b5e0d9fb,ma_choice_v4_social_pilot1,62b9ac142a506642b5e0d9fb,6,Distance from home,0,45 min away,60 min away,direction,3343,,,,,2022-06-27 19:50:48,60645
62b9ac142a506642b5e0d9fb,ma_choice_v4_social_pilot1,62b9ac142a506642b5e0d9fb,7,Opportunity to socialize,0,None,A Lot,direction,4612,,,,,2022-06-27 19:50:54,60658
62b9ac142a506642b5e0d9fb,ma_choice_v4_social_pilot1,62b9ac142a506642b5e0d9fb,7,Opportunity to socialize,0,None,A Little,direction,2705,,,,,2022-06-27 19:50:57,60662
62b9ac142a506642b5e0d9fb,ma_choice_v4_social_pilot1,62b9ac142a506642b5e0d9fb,7,Opportunity to socialize,0,A Little,A Moderate Amount,direction,2433,,,,,2022-06-27 19:50:59,60669
62b9ac142a506642b5e0d9fb,ma_choice_v4_social_pilot1,62b9ac142a506642b5e0d9fb,7,Opportunity to socialize,0,A Moderate Amount,A Lot,direction,3117,,,,,2022-06-27 19:51:02,60676
62b9ac142a506642b5e0d9fb,ma_choice_v4_social_pilot1,62b9ac142a506642b5e0d9fb,8,Amount of music,1,None,A Lot,direction,3855,,,,,2022-06-27 19:51:08,60686
62b9ac142a506642b5e0d9fb,ma_choice_v4_social_pilot1,62b9ac142a506642b5e0d9fb,8,Amount of music,1,None,A Little,direction,3107,,,,,2022-06-27 19:51:11,60695
62b9ac142a506642b5e0d9fb,ma_choice_v4_social_pilot1,62b9ac142a506642b5e0d9fb,8,Amount of music,0,A Little,A Moderate Amount,direction,3688,,,,,2022-06-27 19:51:15,60701
62b9ac142a506642b5e0d9fb,ma_choice_v4_social_pilot1,62b9ac142a506642b5e0d9fb,8,Amount of music,0,A Moderate Amount,A Lot,direction,3555,,,,,2022-06-27 19:51:18,60709
6172edcd801d608b50e9dda0,ma_choice_v4_social_pilot1,6172edcd801d608b50e9dda0,0,Amount of physical activity,1,,,ew_att_rating,4757,,,,,2022-06-27 19:56:29,61225
6172edcd801d608b50e9dda0,ma_choice_v4_social_pilot1,6172edcd801d608b50e9dda0,0,Amount of food present,1,,,ew_att_rating,4757,,,,,2022-06-27 19:56:29,61226
6172edcd801d608b50e9dda0,ma_choice_v4_social_pilot1,6172edcd801d608b50e9dda0,0,Distance from home,0,,,wad_att_rating,2689,,,,,2022-06-27 19:56:35,61233
6172edcd801d608b50e9dda0,ma_choice_v4_social_pilot1,6172edcd801d608b50e9dda0,5,Amount of physical activity,100,,,wad_att_rating,4471,,,,,2022-06-27 19:56:39,61237
6172edcd801d608b50e9dda0,ma_choice_v4_social_pilot1,6172edcd801d608b50e9dda0,1,Amount of alcohol present,0,,,wad_att_rating,1819,,,,,2022-06-27 19:56:41,61240
6172edcd801d608b50e9dda0,ma_choice_v4_social_pilot1,6172edcd801d608b50e9dda0,8,Opportunity to socialize,0,,,wad_att_rating,1056,,,,,2022-06-27 19:56:42,61242
6172edcd801d608b50e9dda0,ma_choice_v4_social_pilot1,6172edcd801d608b50e9dda0,3,Number of other people present,0,,,wad_att_rating,1028,,,,,2022-06-27 19:56:43,61246
6172edcd801d608b50e9dda0,ma_choice_v4_social_pilot1,6172edcd801d608b50e9dda0,4,Duration,0,,,wad_att_rating,964,,,,,2022-06-27 19:56:44,61248
6172edcd801d608b50e9dda0,ma_choice_v4_social_pilot1,6172edcd801d608b50e9dda0,6,Indoors vs. outdoors,0,,,wad_att_rating,859,,,,,2022-06-27 19:56:45,61250
6172edcd801d608b50e9dda0,ma_choice_v4_social_pilot1,6172edcd801d608b50e9dda0,7,Amount of music,0,,,wad_att_rating,1200,,,,,2022-06-27 19:56:46,61254
6172edcd801d608b50e9dda0,ma_choice_v4_social_pilot1,6172edcd801d608b50e9dda0,2,Amount of food present,75,,,wad_att_rating,4063,,,,,2022-06-27 19:56:50,61260
6172edcd801d608b50e9dda0,ma_choice_v4_social_pilot1,6172edcd801d608b50e9dda0,0,Amount of physical activity,1,,,lex_att_rating,3649,,,,,2022-06-27 19:56:58,61265
6172edcd801d608b50e9dda0,ma_choice_v4_social_pilot1,6172edcd801d608b50e9dda0,0,Distance from home,0,5 min away,60 min away,direction,10056,,,,,2022-06-27 19:57:32,61303
6172edcd801d608b50e9dda0,ma_choice_v4_social_pilot1,6172edcd801d608b50e9dda0,0,Distance from home,0,5 min away,20 min away,direction,10463,,,,,2022-06-27 19:57:42,61318
6172edcd801d608b50e9dda0,ma_choice_v4_social_pilot1,6172edcd801d608b50e9dda0,0,Distance from home,0,20 min away,35 min away,direction,5849,,,,,2022-06-27 19:57:48,61331
6172edcd801d608b50e9dda0,ma_choice_v4_social_pilot1,6172edcd801d608b50e9dda0,0,Distance from home,0,35 min away,45 min away,direction,6186,,,,,2022-06-27 19:57:54,61345
6172edcd801d608b50e9dda0,ma_choice_v4_social_pilot1,6172edcd801d608b50e9dda0,0,Distance from home,0,45 min away,60 min away,direction,2738,,,,,2022-06-27 19:57:57,61350
6172edcd801d608b50e9dda0,ma_choice_v4_social_pilot1,6172edcd801d608b50e9dda0,1,Indoors vs. outdoors,0,All Indoors,All Outdoors,direction,7672,,,,,2022-06-27 19:58:06,61364
6172edcd801d608b50e9dda0,ma_choice_v4_social_pilot1,6172edcd801d608b50e9dda0,1,Indoors vs. outdoors,1,All Indoors,Mostly Indoors,direction,10557,,,,,2022-06-27 19:58:17,61374
6172edcd801d608b50e9dda0,ma_choice_v4_social_pilot1,6172edcd801d608b50e9dda0,1,Indoors vs. outdoors,1,Mostly Indoors,Half Indoors and Half Outdoors,direction,3626,,,,,2022-06-27 19:58:20,61383
6172edcd801d608b50e9dda0,ma_choice_v4_social_pilot1,6172edcd801d608b50e9dda0,1,Indoors vs. outdoors,0,Half Indoors and Half Outdoors,Mostly Outdoors,direction,2935,,,,,2022-06-27 19:58:23,61388
6172edcd801d608b50e9dda0,ma_choice_v4_social_pilot1,6172edcd801d608b50e9dda0,1,Indoors vs. outdoors,0,Mostly Outdoors,All Outdoors,direction,2367,,,,,2022-06-27 19:58:26,61391
6172edcd801d608b50e9dda0,ma_choice_v4_social_pilot1,6172edcd801d608b50e9dda0,2,Duration,0,30 minutes,90 minutes,direction,3210,,,,,2022-06-27 19:58:30,61402
6172edcd801d608b50e9dda0,ma_choice_v4_social_pilot1,6172edcd801d608b50e9dda0,2,Duration,0,30 minutes,50 minutes,direction,3715,,,,,2022-06-27 19:58:34,61409
6172edcd801d608b50e9dda0,ma_choice_v4_social_pilot1,6172edcd801d608b50e9dda0,2,Duration,0,50 minutes,60 minutes,direction,1864,,,,,2022-06-27 19:58:36,61415
6172edcd801d608b50e9dda0,ma_choice_v4_social_pilot1,6172edcd801d608b50e9dda0,2,Duration,0,60 minutes,80 minutes,direction,1668,,,,,2022-06-27 19:58:37,61418
6172edcd801d608b50e9dda0,ma_choice_v4_social_pilot1,6172edcd801d608b50e9dda0,2,Duration,0,80 minutes,90 minutes,direction,1640,,,,,2022-06-27 19:58:39,61426
6172edcd801d608b50e9dda0,ma_choice_v4_social_pilot1,6172edcd801d608b50e9dda0,3,Amount of music,1,None,A Lot,direction,3890,,,,,2022-06-27 19:58:44,61439
6172edcd801d608b50e9dda0,ma_choice_v4_social_pilot1,6172edcd801d608b50e9dda0,3,Amount of music,1,None,A Little,direction,2467,,,,,2022-06-27 19:58:46,61446
6172edcd801d608b50e9dda0,ma_choice_v4_social_pilot1,6172edcd801d608b50e9dda0,3,Amount of music,1,A Little,A Moderate Amount,direction,4678,,,,,2022-06-27 19:58:51,61459
6172edcd801d608b50e9dda0,ma_choice_v4_social_pilot1,6172edcd801d608b50e9dda0,3,Amount of music,0,A Moderate Amount,A Lot,direction,1632,,,,,2022-06-27 19:58:53,61465
6172edcd801d608b50e9dda0,ma_choice_v4_social_pilot1,6172edcd801d608b50e9dda0,4,Amount of alcohol present,0,None,A Lot,direction,3178,,,,,2022-06-27 19:58:57,61478
6172edcd801d608b50e9dda0,ma_choice_v4_social_pilot1,6172edcd801d608b50e9dda0,4,Amount of alcohol present,0,None,A Little,direction,2147,,,,,2022-06-27 19:58:59,61483
6172edcd801d608b50e9dda0,ma_choice_v4_social_pilot1,6172edcd801d608b50e9dda0,4,Amount of alcohol present,0,A Little,A Moderate Amount,direction,1640,,,,,2022-06-27 19:59:01,61486
6172edcd801d608b50e9dda0,ma_choice_v4_social_pilot1,6172edcd801d608b50e9dda0,4,Amount of alcohol present,0,A Moderate Amount,A Lot,direction,1667,,,,,2022-06-27 19:59:02,61493
6172edcd801d608b50e9dda0,ma_choice_v4_social_pilot1,6172edcd801d608b50e9dda0,5,Amount of physical activity,0,None,A Lot,direction,3249,,,,,2022-06-27 19:59:07,61506
6172edcd801d608b50e9dda0,ma_choice_v4_social_pilot1,6172edcd801d608b50e9dda0,5,Amount of physical activity,0,None,A Little,direction,2091,,,,,2022-06-27 19:59:09,61517
6172edcd801d608b50e9dda0,ma_choice_v4_social_pilot1,6172edcd801d608b50e9dda0,5,Amount of physical activity,0,A Little,A Moderate Amount,direction,2447,,,,,2022-06-27 19:59:11,61527
6172edcd801d608b50e9dda0,ma_choice_v4_social_pilot1,6172edcd801d608b50e9dda0,5,Amount of physical activity,0,A Moderate Amount,A Lot,direction,1683,,,,,2022-06-27 19:59:13,61533
6172edcd801d608b50e9dda0,ma_choice_v4_social_pilot1,6172edcd801d608b50e9dda0,6,Opportunity to socialize,1,None,A Lot,direction,2935,,,,,2022-06-27 19:59:17,61542
6172edcd801d608b50e9dda0,ma_choice_v4_social_pilot1,6172edcd801d608b50e9dda0,6,Opportunity to socialize,1,None,A Little,direction,1817,,,,,2022-06-27 19:59:19,61547
6172edcd801d608b50e9dda0,ma_choice_v4_social_pilot1,6172edcd801d608b50e9dda0,6,Opportunity to socialize,1,A Little,A Moderate Amount,direction,1949,,,,,2022-06-27 19:59:21,61549
6172edcd801d608b50e9dda0,ma_choice_v4_social_pilot1,6172edcd801d608b50e9dda0,6,Opportunity to socialize,0,A Moderate Amount,A Lot,direction,1904,,,,,2022-06-27 19:59:23,61554
6172edcd801d608b50e9dda0,ma_choice_v4_social_pilot1,6172edcd801d608b50e9dda0,7,Amount of food present,1,None,A Lot,direction,1886,,,,,2022-06-27 19:59:25,61561
6172edcd801d608b50e9dda0,ma_choice_v4_social_pilot1,6172edcd801d608b50e9dda0,7,Amount of food present,1,None,A Little,direction,1532,,,,,2022-06-27 19:59:27,61563
6172edcd801d608b50e9dda0,ma_choice_v4_social_pilot1,6172edcd801d608b50e9dda0,7,Amount of food present,1,A Little,A Moderate Amount,direction,1499,,,,,2022-06-27 19:59:28,61565
6172edcd801d608b50e9dda0,ma_choice_v4_social_pilot1,6172edcd801d608b50e9dda0,7,Amount of food present,1,A Moderate Amount,A Lot,direction,1703,,,,,2022-06-27 19:59:30,61566
6172edcd801d608b50e9dda0,ma_choice_v4_social_pilot1,6172edcd801d608b50e9dda0,8,Number of other people present,0,3 people,12 people,direction,3233,,,,,2022-06-27 19:59:35,61571
6172edcd801d608b50e9dda0,ma_choice_v4_social_pilot1,6172edcd801d608b50e9dda0,8,Number of other people present,1,3 people,5 people,direction,3051,,,,,2022-06-27 19:59:38,61575
6172edcd801d608b50e9dda0,ma_choice_v4_social_pilot1,6172edcd801d608b50e9dda0,8,Number of other people present,1,5 people,8 people,direction,1615,,,,,2022-06-27 19:59:39,61578
6172edcd801d608b50e9dda0,ma_choice_v4_social_pilot1,6172edcd801d608b50e9dda0,8,Number of other people present,0,8 people,10 people,direction,2500,,,,,2022-06-27 19:59:42,61581
6172edcd801d608b50e9dda0,ma_choice_v4_social_pilot1,6172edcd801d608b50e9dda0,8,Number of other people present,0,10 people,12 people,direction,1543,,,,,2022-06-27 19:59:43,61584
60dc4e2299f89a7ca94b2c91,ma_choice_v4_social_pilot1,60dc4e2299f89a7ca94b2c91,5,Amount of physical activity,75,,,wad_att_rating,6213,,,,,2022-06-27 20:00:54,61644
60dc4e2299f89a7ca94b2c91,ma_choice_v4_social_pilot1,60dc4e2299f89a7ca94b2c91,1,Amount of alcohol present,25,,,wad_att_rating,20363,,,,,2022-06-27 20:01:14,61670
60dc4e2299f89a7ca94b2c91,ma_choice_v4_social_pilot1,60dc4e2299f89a7ca94b2c91,7,Amount of music,48,,,wad_att_rating,2942,,,,,2022-06-27 20:01:17,61675
60dc4e2299f89a7ca94b2c91,ma_choice_v4_social_pilot1,60dc4e2299f89a7ca94b2c91,0,Distance from home,83,,,wad_att_rating,7005,,,,,2022-06-27 20:01:24,61682
60dc4e2299f89a7ca94b2c91,ma_choice_v4_social_pilot1,60dc4e2299f89a7ca94b2c91,8,Opportunity to socialize,63,,,wad_att_rating,5958,,,,,2022-06-27 20:01:30,61690
60dc4e2299f89a7ca94b2c91,ma_choice_v4_social_pilot1,60dc4e2299f89a7ca94b2c91,3,Number of other people present,51,,,wad_att_rating,3126,,,,,2022-06-27 20:01:33,61696
60dc4e2299f89a7ca94b2c91,ma_choice_v4_social_pilot1,60dc4e2299f89a7ca94b2c91,6,Indoors vs. outdoors,62,,,wad_att_rating,3454,,,,,2022-06-27 20:01:37,61700
60dc4e2299f89a7ca94b2c91,ma_choice_v4_social_pilot1,60dc4e2299f89a7ca94b2c91,4,Duration,74,,,wad_att_rating,2606,,,,,2022-06-27 20:01:39,61705
60b98e805f90520bd582802d,ma_choice_v4_social_pilot1,60b98e805f90520bd582802d,5,Amount of physical activity,82,,,wad_att_rating,4846,,,,,2022-06-27 20:01:42,61707
60dc4e2299f89a7ca94b2c91,ma_choice_v4_social_pilot1,60dc4e2299f89a7ca94b2c91,2,Amount of food present,51,,,wad_att_rating,3134,,,,,2022-06-27 20:01:42,61709
60b98e805f90520bd582802d,ma_choice_v4_social_pilot1,60b98e805f90520bd582802d,1,Amount of alcohol present,0,,,wad_att_rating,3447,,,,,2022-06-27 20:01:45,61713
60b98e805f90520bd582802d,ma_choice_v4_social_pilot1,60b98e805f90520bd582802d,7,Amount of music,26,,,wad_att_rating,1867,,,,,2022-06-27 20:01:47,61715
60b98e805f90520bd582802d,ma_choice_v4_social_pilot1,60b98e805f90520bd582802d,0,Distance from home,78,,,wad_att_rating,3154,,,,,2022-06-27 20:01:50,61721
60b98e805f90520bd582802d,ma_choice_v4_social_pilot1,60b98e805f90520bd582802d,8,Opportunity to socialize,76,,,wad_att_rating,2918,,,,,2022-06-27 20:01:53,61727
60b98e805f90520bd582802d,ma_choice_v4_social_pilot1,60b98e805f90520bd582802d,4,Duration,50,,,wad_att_rating,2622,,,,,2022-06-27 20:01:55,61733
60b98e805f90520bd582802d,ma_choice_v4_social_pilot1,60b98e805f90520bd582802d,6,Indoors vs. outdoors,76,,,wad_att_rating,3696,,,,,2022-06-27 20:01:59,61743
60b98e805f90520bd582802d,ma_choice_v4_social_pilot1,60b98e805f90520bd582802d,3,Number of other people present,47,,,wad_att_rating,2632,,,,,2022-06-27 20:02:02,61749
60b98e805f90520bd582802d,ma_choice_v4_social_pilot1,60b98e805f90520bd582802d,2,Amount of food present,50,,,wad_att_rating,2028,,,,,2022-06-27 20:02:04,61752
60dc4e2299f89a7ca94b2c91,ma_choice_v4_social_pilot1,60dc4e2299f89a7ca94b2c91,0,Opportunity to socialize,1,,,lex_att_rating,15646,,,,,2022-06-27 20:02:20,61775
60b98e805f90520bd582802d,ma_choice_v4_social_pilot1,60b98e805f90520bd582802d,0,Opportunity to socialize,1,,,ew_att_rating,12882,,,,,2022-06-27 20:03:42,61873
60b98e805f90520bd582802d,ma_choice_v4_social_pilot1,60b98e805f90520bd582802d,0,Indoors vs. outdoors,1,,,ew_att_rating,12882,,,,,2022-06-27 20:03:42,61874
60b98e805f90520bd582802d,ma_choice_v4_social_pilot1,60b98e805f90520bd582802d,0,Distance from home,1,,,ew_att_rating,12882,,,,,2022-06-27 20:03:42,61875
60b98e805f90520bd582802d,ma_choice_v4_social_pilot1,60b98e805f90520bd582802d,0,Distance from home,1,,,lex_att_rating,3419,,,,,2022-06-27 20:03:48,61882
60dc4e2299f89a7ca94b2c91,ma_choice_v4_social_pilot1,60dc4e2299f89a7ca94b2c91,0,Distance from home,1,,,ew_att_rating,14885,,,,,2022-06-27 20:03:51,61885
60dc4e2299f89a7ca94b2c91,ma_choice_v4_social_pilot1,60dc4e2299f89a7ca94b2c91,0,Amount of physical activity,1,,,ew_att_rating,14885,,,,,2022-06-27 20:03:51,61886
60dc4e2299f89a7ca94b2c91,ma_choice_v4_social_pilot1,60dc4e2299f89a7ca94b2c91,0,Number of other people present,1,,,ew_att_rating,14885,,,,,2022-06-27 20:03:51,61887
60dc4e2299f89a7ca94b2c91,ma_choice_v4_social_pilot1,60dc4e2299f89a7ca94b2c91,0,Duration,1,,,ew_att_rating,14885,,,,,2022-06-27 20:03:51,61888
60dc4e2299f89a7ca94b2c91,ma_choice_v4_social_pilot1,60dc4e2299f89a7ca94b2c91,0,Indoors vs. outdoors,1,,,ew_att_rating,14885,,,,,2022-06-27 20:03:51,61889
60dc4e2299f89a7ca94b2c91,ma_choice_v4_social_pilot1,60dc4e2299f89a7ca94b2c91,0,Opportunity to socialize,1,,,ew_att_rating,14885,,,,,2022-06-27 20:03:51,61890
60dc4e2299f89a7ca94b2c91,ma_choice_v4_social_pilot1,60dc4e2299f89a7ca94b2c91,0,Amount of food present,0,None,A Lot,direction,25687,,,,,2022-06-27 20:04:47,61956
60dc4e2299f89a7ca94b2c91,ma_choice_v4_social_pilot1,60dc4e2299f89a7ca94b2c91,0,Amount of food present,1,None,A Little,direction,3893,,,,,2022-06-27 20:04:51,61961
60dc4e2299f89a7ca94b2c91,ma_choice_v4_social_pilot1,60dc4e2299f89a7ca94b2c91,0,Amount of food present,1,A Little,A Moderate Amount,direction,21932,,,,,2022-06-27 20:05:13,61985
60dc4e2299f89a7ca94b2c91,ma_choice_v4_social_pilot1,60dc4e2299f89a7ca94b2c91,0,Amount of food present,0,A Moderate Amount,A Lot,direction,3621,,,,,2022-06-27 20:05:16,61988
60dc4e2299f89a7ca94b2c91,ma_choice_v4_social_pilot1,60dc4e2299f89a7ca94b2c91,1,Amount of music,0,None,A Lot,direction,4879,,,,,2022-06-27 20:05:23,61995
626819131a0c786bca585d33,ma_choice_v4_social_pilot1,626819131a0c786bca585d33,0,Amount of food present,1,,,lex_att_rating,7187,,,,,2022-06-27 20:05:24,61999
60dc4e2299f89a7ca94b2c91,ma_choice_v4_social_pilot1,60dc4e2299f89a7ca94b2c91,1,Amount of music,1,None,A Little,direction,2965,,,,,2022-06-27 20:05:25,62001
60dc4e2299f89a7ca94b2c91,ma_choice_v4_social_pilot1,60dc4e2299f89a7ca94b2c91,1,Amount of music,1,A Little,A Moderate Amount,direction,2581,,,,,2022-06-27 20:05:28,62003
60dc4e2299f89a7ca94b2c91,ma_choice_v4_social_pilot1,60dc4e2299f89a7ca94b2c91,1,Amount of music,0,A Moderate Amount,A Lot,direction,2180,,,,,2022-06-27 20:05:30,62004
60dc4e2299f89a7ca94b2c91,ma_choice_v4_social_pilot1,60dc4e2299f89a7ca94b2c91,2,Amount of physical activity,0,None,A Lot,direction,3311,,,,,2022-06-27 20:05:35,62009
60dc4e2299f89a7ca94b2c91,ma_choice_v4_social_pilot1,60dc4e2299f89a7ca94b2c91,2,Amount of physical activity,1,None,A Little,direction,2589,,,,,2022-06-27 20:05:38,62012
60dc4e2299f89a7ca94b2c91,ma_choice_v4_social_pilot1,60dc4e2299f89a7ca94b2c91,2,Amount of physical activity,1,A Little,A Moderate Amount,direction,2381,,,,,2022-06-27 20:05:40,62014
60dc4e2299f89a7ca94b2c91,ma_choice_v4_social_pilot1,60dc4e2299f89a7ca94b2c91,2,Amount of physical activity,0,A Moderate Amount,A Lot,direction,1702,,,,,2022-06-27 20:05:42,62015
60dc4e2299f89a7ca94b2c91,ma_choice_v4_social_pilot1,60dc4e2299f89a7ca94b2c91,3,Amount of alcohol present,0,None,A Lot,direction,3136,,,,,2022-06-27 20:05:46,62016
60dc4e2299f89a7ca94b2c91,ma_choice_v4_social_pilot1,60dc4e2299f89a7ca94b2c91,3,Amount of alcohol present,1,None,A Little,direction,2221,,,,,2022-06-27 20:05:48,62018
626819131a0c786bca585d33,ma_choice_v4_social_pilot1,626819131a0c786bca585d33,0,Indoors vs. outdoors,1,,,ew_att_rating,17182,,,,,2022-06-27 20:05:49,62020
626819131a0c786bca585d33,ma_choice_v4_social_pilot1,626819131a0c786bca585d33,0,Distance from home,1,,,ew_att_rating,17182,,,,,2022-06-27 20:05:49,62021
626819131a0c786bca585d33,ma_choice_v4_social_pilot1,626819131a0c786bca585d33,0,Amount of food present,1,,,ew_att_rating,17182,,,,,2022-06-27 20:05:49,62022
626819131a0c786bca585d33,ma_choice_v4_social_pilot1,626819131a0c786bca585d33,0,Duration,1,,,ew_att_rating,17182,,,,,2022-06-27 20:05:49,62023
626819131a0c786bca585d33,ma_choice_v4_social_pilot1,626819131a0c786bca585d33,0,Amount of physical activity,1,,,ew_att_rating,17182,,,,,2022-06-27 20:05:49,62024
626819131a0c786bca585d33,ma_choice_v4_social_pilot1,626819131a0c786bca585d33,0,Opportunity to socialize,1,,,ew_att_rating,17182,,,,,2022-06-27 20:05:49,62025
60dc4e2299f89a7ca94b2c91,ma_choice_v4_social_pilot1,60dc4e2299f89a7ca94b2c91,3,Amount of alcohol present,0,A Little,A Moderate Amount,direction,2133,,,,,2022-06-27 20:05:50,62026
60dc4e2299f89a7ca94b2c91,ma_choice_v4_social_pilot1,60dc4e2299f89a7ca94b2c91,3,Amount of alcohol present,0,A Moderate Amount,A Lot,direction,1524,,,,,2022-06-27 20:05:52,62028
60dc4e2299f89a7ca94b2c91,ma_choice_v4_social_pilot1,60dc4e2299f89a7ca94b2c91,4,Duration,0,30 minutes,90 minutes,direction,3823,,,,,2022-06-27 20:05:57,62032
60dc4e2299f89a7ca94b2c91,ma_choice_v4_social_pilot1,60dc4e2299f89a7ca94b2c91,4,Duration,0,30 minutes,50 minutes,direction,1422,,,,,2022-06-27 20:05:58,62033
60dc4e2299f89a7ca94b2c91,ma_choice_v4_social_pilot1,60dc4e2299f89a7ca94b2c91,4,Duration,0,50 minutes,60 minutes,direction,3581,,,,,2022-06-27 20:06:02,62035
626819131a0c786bca585d33,ma_choice_v4_social_pilot1,626819131a0c786bca585d33,7,Amount of music,75,,,wad_att_rating,8746,,,,,2022-06-27 20:06:02,62036
60dc4e2299f89a7ca94b2c91,ma_choice_v4_social_pilot1,60dc4e2299f89a7ca94b2c91,4,Duration,0,60 minutes,80 minutes,direction,2197,,,,,2022-06-27 20:06:04,62038
60dc4e2299f89a7ca94b2c91,ma_choice_v4_social_pilot1,60dc4e2299f89a7ca94b2c91,4,Duration,0,80 minutes,90 minutes,direction,1843,,,,,2022-06-27 20:06:06,62040
626819131a0c786bca585d33,ma_choice_v4_social_pilot1,626819131a0c786bca585d33,3,Number of other people present,0,,,wad_att_rating,5712,,,,,2022-06-27 20:06:08,62042
60dc4e2299f89a7ca94b2c91,ma_choice_v4_social_pilot1,60dc4e2299f89a7ca94b2c91,5,Distance from home,0,5 min away,60 min away,direction,1398,,,,,2022-06-27 20:06:08,62043
60dc4e2299f89a7ca94b2c91,ma_choice_v4_social_pilot1,60dc4e2299f89a7ca94b2c91,5,Distance from home,0,5 min away,20 min away,direction,1908,,,,,2022-06-27 20:06:10,62044
60dc4e2299f89a7ca94b2c91,ma_choice_v4_social_pilot1,60dc4e2299f89a7ca94b2c91,5,Distance from home,0,20 min away,35 min away,direction,1477,,,,,2022-06-27 20:06:12,62045
626819131a0c786bca585d33,ma_choice_v4_social_pilot1,626819131a0c786bca585d33,6,Indoors vs. outdoors,64,,,wad_att_rating,4707,,,,,2022-06-27 20:06:13,62047
60dc4e2299f89a7ca94b2c91,ma_choice_v4_social_pilot1,60dc4e2299f89a7ca94b2c91,5,Distance from home,0,35 min away,45 min away,direction,1558,,,,,2022-06-27 20:06:13,62048
60dc4e2299f89a7ca94b2c91,ma_choice_v4_social_pilot1,60dc4e2299f89a7ca94b2c91,5,Distance from home,0,45 min away,60 min away,direction,1502,,,,,2022-06-27 20:06:15,62050
626819131a0c786bca585d33,ma_choice_v4_social_pilot1,626819131a0c786bca585d33,8,Opportunity to socialize,64,,,wad_att_rating,3226,,,,,2022-06-27 20:06:16,62052
60dc4e2299f89a7ca94b2c91,ma_choice_v4_social_pilot1,60dc4e2299f89a7ca94b2c91,6,Number of other people present,1,3 people,12 people,direction,2063,,,,,2022-06-27 20:06:18,62055
626819131a0c786bca585d33,ma_choice_v4_social_pilot1,626819131a0c786bca585d33,0,Distance from home,80,,,wad_att_rating,3732,,,,,2022-06-27 20:06:20,62056
60dc4e2299f89a7ca94b2c91,ma_choice_v4_social_pilot1,60dc4e2299f89a7ca94b2c91,6,Number of other people present,0,3 people,5 people,direction,1340,,,,,2022-06-27 20:06:20,62057
60dc4e2299f89a7ca94b2c91,ma_choice_v4_social_pilot1,60dc4e2299f89a7ca94b2c91,6,Number of other people present,1,5 people,8 people,direction,1892,,,,,2022-06-27 20:06:22,62059
626819131a0c786bca585d33,ma_choice_v4_social_pilot1,626819131a0c786bca585d33,1,Amount of alcohol present,0,,,wad_att_rating,2890,,,,,2022-06-27 20:06:23,62060
60dc4e2299f89a7ca94b2c91,ma_choice_v4_social_pilot1,60dc4e2299f89a7ca94b2c91,6,Number of other people present,1,8 people,10 people,direction,2263,,,,,2022-06-27 20:06:24,62062
60dc4e2299f89a7ca94b2c91,ma_choice_v4_social_pilot1,60dc4e2299f89a7ca94b2c91,6,Number of other people present,0,10 people,12 people,direction,2741,,,,,2022-06-27 20:06:27,62064
626819131a0c786bca585d33,ma_choice_v4_social_pilot1,626819131a0c786bca585d33,5,Amount of physical activity,49,,,wad_att_rating,4235,,,,,2022-06-27 20:06:27,62065
60dc4e2299f89a7ca94b2c91,ma_choice_v4_social_pilot1,60dc4e2299f89a7ca94b2c91,7,Opportunity to socialize,1,None,A Lot,direction,1998,,,,,2022-06-27 20:06:30,62067
626819131a0c786bca585d33,ma_choice_v4_social_pilot1,626819131a0c786bca585d33,2,Amount of food present,82,,,wad_att_rating,4625,,,,,2022-06-27 20:06:31,62070
60dc4e2299f89a7ca94b2c91,ma_choice_v4_social_pilot1,60dc4e2299f89a7ca94b2c91,7,Opportunity to socialize,1,None,A Little,direction,1781,,,,,2022-06-27 20:06:32,62071
60dc4e2299f89a7ca94b2c91,ma_choice_v4_social_pilot1,60dc4e2299f89a7ca94b2c91,7,Opportunity to socialize,1,A Little,A Moderate Amount,direction,1845,,,,,2022-06-27 20:06:33,62075
60dc4e2299f89a7ca94b2c91,ma_choice_v4_social_pilot1,60dc4e2299f89a7ca94b2c91,7,Opportunity to socialize,1,A Moderate Amount,A Lot,direction,1773,,,,,2022-06-27 20:06:35,62077
626819131a0c786bca585d33,ma_choice_v4_social_pilot1,626819131a0c786bca585d33,4,Duration,76,,,wad_att_rating,4938,,,,,2022-06-27 20:06:36,62079
60dc4e2299f89a7ca94b2c91,ma_choice_v4_social_pilot1,60dc4e2299f89a7ca94b2c91,8,Indoors vs. outdoors,0,All Indoors,All Outdoors,direction,3049,,,,,2022-06-27 20:06:40,62081
60dc4e2299f89a7ca94b2c91,ma_choice_v4_social_pilot1,60dc4e2299f89a7ca94b2c91,8,Indoors vs. outdoors,0,All Indoors,Mostly Indoors,direction,1368,,,,,2022-06-27 20:06:41,62083
60dc4e2299f89a7ca94b2c91,ma_choice_v4_social_pilot1,60dc4e2299f89a7ca94b2c91,8,Indoors vs. outdoors,1,Mostly Indoors,Half Indoors and Half Outdoors,direction,1525,,,,,2022-06-27 20:06:42,62084
60dc4e2299f89a7ca94b2c91,ma_choice_v4_social_pilot1,60dc4e2299f89a7ca94b2c91,8,Indoors vs. outdoors,0,Half Indoors and Half Outdoors,Mostly Outdoors,direction,1157,,,,,2022-06-27 20:06:44,62085
60dc4e2299f89a7ca94b2c91,ma_choice_v4_social_pilot1,60dc4e2299f89a7ca94b2c91,8,Indoors vs. outdoors,0,Mostly Outdoors,All Outdoors,direction,2308,,,,,2022-06-27 20:06:46,62086
61577cfb758541d9e85d5d4e,ma_choice_v4_social_pilot1,61577cfb758541d9e85d5d4e,3,Number of other people present,25,,,wad_att_rating,6886,,,,,2022-06-27 20:07:01,62092
626819131a0c786bca585d33,ma_choice_v4_social_pilot1,626819131a0c786bca585d33,0,Duration,0,30 minutes,90 minutes,direction,8534,,,,,2022-06-27 20:07:04,62093
61577cfb758541d9e85d5d4e,ma_choice_v4_social_pilot1,61577cfb758541d9e85d5d4e,8,Opportunity to socialize,26,,,wad_att_rating,2590,,,,,2022-06-27 20:07:04,62094
61577cfb758541d9e85d5d4e,ma_choice_v4_social_pilot1,61577cfb758541d9e85d5d4e,5,Amount of physical activity,21,,,wad_att_rating,1951,,,,,2022-06-27 20:07:06,62095
61577cfb758541d9e85d5d4e,ma_choice_v4_social_pilot1,61577cfb758541d9e85d5d4e,1,Amount of alcohol present,0,,,wad_att_rating,823,,,,,2022-06-27 20:07:07,62096
61577cfb758541d9e85d5d4e,ma_choice_v4_social_pilot1,61577cfb758541d9e85d5d4e,7,Amount of music,72,,,wad_att_rating,2589,,,,,2022-06-27 20:07:09,62098
61577cfb758541d9e85d5d4e,ma_choice_v4_social_pilot1,61577cfb758541d9e85d5d4e,0,Distance from home,80,,,wad_att_rating,2070,,,,,2022-06-27 20:07:11,62100
61577cfb758541d9e85d5d4e,ma_choice_v4_social_pilot1,61577cfb758541d9e85d5d4e,4,Duration,51,,,wad_att_rating,1841,,,,,2022-06-27 20:07:13,62102
626819131a0c786bca585d33,ma_choice_v4_social_pilot1,626819131a0c786bca585d33,0,Duration,0,30 minutes,50 minutes,direction,10956,,,,,2022-06-27 20:07:15,62105
61577cfb758541d9e85d5d4e,ma_choice_v4_social_pilot1,61577cfb758541d9e85d5d4e,6,Indoors vs. outdoors,50,,,wad_att_rating,1712,,,,,2022-06-27 20:07:15,62106
61577cfb758541d9e85d5d4e,ma_choice_v4_social_pilot1,61577cfb758541d9e85d5d4e,2,Amount of food present,95,,,wad_att_rating,2363,,,,,2022-06-27 20:07:17,62107
626819131a0c786bca585d33,ma_choice_v4_social_pilot1,626819131a0c786bca585d33,0,Duration,0,50 minutes,60 minutes,direction,7428,,,,,2022-06-27 20:07:22,62109
626819131a0c786bca585d33,ma_choice_v4_social_pilot1,626819131a0c786bca585d33,0,Duration,0,60 minutes,80 minutes,direction,5767,,,,,2022-06-27 20:07:28,62114
626819131a0c786bca585d33,ma_choice_v4_social_pilot1,626819131a0c786bca585d33,0,Duration,0,80 minutes,90 minutes,direction,5764,,,,,2022-06-27 20:07:34,62119
61577cfb758541d9e85d5d4e,ma_choice_v4_social_pilot1,61577cfb758541d9e85d5d4e,0,Amount of food present,1,,,lex_att_rating,7167,,,,,2022-06-27 20:07:34,62120
626819131a0c786bca585d33,ma_choice_v4_social_pilot1,626819131a0c786bca585d33,1,Amount of physical activity,1,None,A Lot,direction,15006,,,,,2022-06-27 20:07:50,62132
626819131a0c786bca585d33,ma_choice_v4_social_pilot1,626819131a0c786bca585d33,1,Amount of physical activity,1,None,A Little,direction,8627,,,,,2022-06-27 20:07:59,62138
626819131a0c786bca585d33,ma_choice_v4_social_pilot1,626819131a0c786bca585d33,1,Amount of physical activity,0,A Little,A Moderate Amount,direction,5771,,,,,2022-06-27 20:08:05,62145
61577cfb758541d9e85d5d4e,ma_choice_v4_social_pilot1,61577cfb758541d9e85d5d4e,0,Distance from home,1,,,ew_att_rating,17747,,,,,2022-06-27 20:08:09,62150
61577cfb758541d9e85d5d4e,ma_choice_v4_social_pilot1,61577cfb758541d9e85d5d4e,0,Amount of food present,1,,,ew_att_rating,17747,,,,,2022-06-27 20:08:09,62151
61577cfb758541d9e85d5d4e,ma_choice_v4_social_pilot1,61577cfb758541d9e85d5d4e,0,Number of other people present,1,,,ew_att_rating,17747,,,,,2022-06-27 20:08:09,62152
61577cfb758541d9e85d5d4e,ma_choice_v4_social_pilot1,61577cfb758541d9e85d5d4e,0,Indoors vs. outdoors,1,,,ew_att_rating,17747,,,,,2022-06-27 20:08:09,62153
61577cfb758541d9e85d5d4e,ma_choice_v4_social_pilot1,61577cfb758541d9e85d5d4e,0,Amount of music,1,,,ew_att_rating,17747,,,,,2022-06-27 20:08:09,62154
626819131a0c786bca585d33,ma_choice_v4_social_pilot1,626819131a0c786bca585d33,1,Amount of physical activity,0,A Moderate Amount,A Lot,direction,4132,,,,,2022-06-27 20:08:09,62155
626819131a0c786bca585d33,ma_choice_v4_social_pilot1,626819131a0c786bca585d33,2,Amount of food present,1,None,A Lot,direction,4878,,,,,2022-06-27 20:08:16,62170
626819131a0c786bca585d33,ma_choice_v4_social_pilot1,626819131a0c786bca585d33,2,Amount of food present,1,None,A Little,direction,3416,,,,,2022-06-27 20:08:19,62175
626819131a0c786bca585d33,ma_choice_v4_social_pilot1,626819131a0c786bca585d33,2,Amount of food present,1,A Little,A Moderate Amount,direction,2646,,,,,2022-06-27 20:08:22,62181
626819131a0c786bca585d33,ma_choice_v4_social_pilot1,626819131a0c786bca585d33,2,Amount of food present,1,A Moderate Amount,A Lot,direction,6639,,,,,2022-06-27 20:08:28,62190
626819131a0c786bca585d33,ma_choice_v4_social_pilot1,626819131a0c786bca585d33,3,Number of other people present,1,3 people,12 people,direction,11076,,,,,2022-06-27 20:08:41,62210
626819131a0c786bca585d33,ma_choice_v4_social_pilot1,626819131a0c786bca585d33,3,Number of other people present,1,3 people,5 people,direction,5096,,,,,2022-06-27 20:08:46,62219
626819131a0c786bca585d33,ma_choice_v4_social_pilot1,626819131a0c786bca585d33,3,Number of other people present,0,5 people,8 people,direction,3212,,,,,2022-06-27 20:08:49,62236
626819131a0c786bca585d33,ma_choice_v4_social_pilot1,626819131a0c786bca585d33,3,Number of other people present,1,8 people,10 people,direction,3658,,,,,2022-06-27 20:08:53,62241
626819131a0c786bca585d33,ma_choice_v4_social_pilot1,626819131a0c786bca585d33,3,Number of other people present,1,10 people,12 people,direction,2590,,,,,2022-06-27 20:08:55,62244
626819131a0c786bca585d33,ma_choice_v4_social_pilot1,626819131a0c786bca585d33,4,Indoors vs. outdoors,1,All Indoors,All Outdoors,direction,2590,,,,,2022-06-27 20:08:59,62248
626819131a0c786bca585d33,ma_choice_v4_social_pilot1,626819131a0c786bca585d33,4,Indoors vs. outdoors,1,All Indoors,Mostly Indoors,direction,6116,,,,,2022-06-27 20:09:05,62257
626819131a0c786bca585d33,ma_choice_v4_social_pilot1,626819131a0c786bca585d33,4,Indoors vs. outdoors,1,Mostly Indoors,Half Indoors and Half Outdoors,direction,2756,,,,,2022-06-27 20:09:08,62259
626819131a0c786bca585d33,ma_choice_v4_social_pilot1,626819131a0c786bca585d33,4,Indoors vs. outdoors,1,Half Indoors and Half Outdoors,Mostly Outdoors,direction,7186,,,,,2022-06-27 20:09:15,62272
626819131a0c786bca585d33,ma_choice_v4_social_pilot1,626819131a0c786bca585d33,4,Indoors vs. outdoors,1,Mostly Outdoors,All Outdoors,direction,2983,,,,,2022-06-27 20:09:18,62282
626819131a0c786bca585d33,ma_choice_v4_social_pilot1,626819131a0c786bca585d33,5,Distance from home,0,5 min away,60 min away,direction,3053,,,,,2022-06-27 20:09:23,62291
626819131a0c786bca585d33,ma_choice_v4_social_pilot1,626819131a0c786bca585d33,5,Distance from home,0,5 min away,20 min away,direction,2398,,,,,2022-06-27 20:09:25,62295
626819131a0c786bca585d33,ma_choice_v4_social_pilot1,626819131a0c786bca585d33,5,Distance from home,0,20 min away,35 min away,direction,2990,,,,,2022-06-27 20:09:28,62302
626819131a0c786bca585d33,ma_choice_v4_social_pilot1,626819131a0c786bca585d33,5,Distance from home,0,35 min away,45 min away,direction,2466,,,,,2022-06-27 20:09:31,62309
626819131a0c786bca585d33,ma_choice_v4_social_pilot1,626819131a0c786bca585d33,5,Distance from home,0,45 min away,60 min away,direction,2015,,,,,2022-06-27 20:09:33,62313
626819131a0c786bca585d33,ma_choice_v4_social_pilot1,626819131a0c786bca585d33,6,Opportunity to socialize,1,None,A Lot,direction,3356,,,,,2022-06-27 20:09:37,62322
626819131a0c786bca585d33,ma_choice_v4_social_pilot1,626819131a0c786bca585d33,6,Opportunity to socialize,1,None,A Little,direction,3676,,,,,2022-06-27 20:09:41,62331
626819131a0c786bca585d33,ma_choice_v4_social_pilot1,626819131a0c786bca585d33,6,Opportunity to socialize,1,A Little,A Moderate Amount,direction,2909,,,,,2022-06-27 20:09:44,62337
626819131a0c786bca585d33,ma_choice_v4_social_pilot1,626819131a0c786bca585d33,6,Opportunity to socialize,1,A Moderate Amount,A Lot,direction,2496,,,,,2022-06-27 20:09:46,62347
626819131a0c786bca585d33,ma_choice_v4_social_pilot1,626819131a0c786bca585d33,7,Amount of music,1,None,A Lot,direction,2670,,,,,2022-06-27 20:09:50,62355
626819131a0c786bca585d33,ma_choice_v4_social_pilot1,626819131a0c786bca585d33,7,Amount of music,1,None,A Little,direction,4764,,,,,2022-06-27 20:09:55,62359
626819131a0c786bca585d33,ma_choice_v4_social_pilot1,626819131a0c786bca585d33,7,Amount of music,1,A Little,A Moderate Amount,direction,2312,,,,,2022-06-27 20:09:57,62366
626819131a0c786bca585d33,ma_choice_v4_social_pilot1,626819131a0c786bca585d33,7,Amount of music,0,A Moderate Amount,A Lot,direction,2336,,,,,2022-06-27 20:10:00,62372
626819131a0c786bca585d33,ma_choice_v4_social_pilot1,626819131a0c786bca585d33,8,Amount of alcohol present,0,None,A Lot,direction,5837,,,,,2022-06-27 20:10:07,62383
626819131a0c786bca585d33,ma_choice_v4_social_pilot1,626819131a0c786bca585d33,8,Amount of alcohol present,1,None,A Little,direction,2008,,,,,2022-06-27 20:10:09,62386
626819131a0c786bca585d33,ma_choice_v4_social_pilot1,626819131a0c786bca585d33,8,Amount of alcohol present,1,A Little,A Moderate Amount,direction,1933,,,,,2022-06-27 20:10:11,62389
626819131a0c786bca585d33,ma_choice_v4_social_pilot1,626819131a0c786bca585d33,8,Amount of alcohol present,0,A Moderate Amount,A Lot,direction,2173,,,,,2022-06-27 20:10:13,62393
5c6477fe4f0ea90001782441,ma_choice_v4_social_pilot1,5c6477fe4f0ea90001782441,3,Number of other people present,51,,,wad_att_rating,4401,,,,,2022-06-27 20:10:43,62422
5c6477fe4f0ea90001782441,ma_choice_v4_social_pilot1,5c6477fe4f0ea90001782441,0,Distance from home,57,,,wad_att_rating,2403,,,,,2022-06-27 20:10:45,62423
5c6477fe4f0ea90001782441,ma_choice_v4_social_pilot1,5c6477fe4f0ea90001782441,7,Amount of music,15,,,wad_att_rating,3358,,,,,2022-06-27 20:10:48,62427
5c6477fe4f0ea90001782441,ma_choice_v4_social_pilot1,5c6477fe4f0ea90001782441,2,Amount of food present,14,,,wad_att_rating,1760,,,,,2022-06-27 20:10:50,62430
5c6477fe4f0ea90001782441,ma_choice_v4_social_pilot1,5c6477fe4f0ea90001782441,1,Amount of alcohol present,15,,,wad_att_rating,1674,,,,,2022-06-27 20:10:52,62437
5c6477fe4f0ea90001782441,ma_choice_v4_social_pilot1,5c6477fe4f0ea90001782441,8,Opportunity to socialize,16,,,wad_att_rating,1876,,,,,2022-06-27 20:10:54,62440
5c6477fe4f0ea90001782441,ma_choice_v4_social_pilot1,5c6477fe4f0ea90001782441,6,Indoors vs. outdoors,17,,,wad_att_rating,1850,,,,,2022-06-27 20:10:56,62445
5c6477fe4f0ea90001782441,ma_choice_v4_social_pilot1,5c6477fe4f0ea90001782441,5,Amount of physical activity,16,,,wad_att_rating,2344,,,,,2022-06-27 20:10:58,62447
5c6477fe4f0ea90001782441,ma_choice_v4_social_pilot1,5c6477fe4f0ea90001782441,4,Duration,91,,,wad_att_rating,3436,,,,,2022-06-27 20:11:02,62452
5c6477fe4f0ea90001782441,ma_choice_v4_social_pilot1,5c6477fe4f0ea90001782441,0,Duration,1,,,ew_att_rating,10026,,,,,2022-06-27 20:11:15,62477
5c6477fe4f0ea90001782441,ma_choice_v4_social_pilot1,5c6477fe4f0ea90001782441,0,Duration,1,,,lex_att_rating,6491,,,,,2022-06-27 20:11:25,62487
60b98e805f90520bd582802d,ma_choice_v4_social_pilot1,60b98e805f90520bd582802d,0,Indoors vs. outdoors,0,All Indoors,All Outdoors,direction,5419,,,,,2022-06-27 20:13:17,62655
60b98e805f90520bd582802d,ma_choice_v4_social_pilot1,60b98e805f90520bd582802d,0,Indoors vs. outdoors,0,All Indoors,Mostly Indoors,direction,4560,,,,,2022-06-27 20:13:22,62662
60b98e805f90520bd582802d,ma_choice_v4_social_pilot1,60b98e805f90520bd582802d,0,Indoors vs. outdoors,0,Mostly Indoors,Half Indoors and Half Outdoors,direction,2051,,,,,2022-06-27 20:13:24,62664
60b98e805f90520bd582802d,ma_choice_v4_social_pilot1,60b98e805f90520bd582802d,0,Indoors vs. outdoors,0,Half Indoors and Half Outdoors,Mostly Outdoors,direction,2923,,,,,2022-06-27 20:13:27,62666
60b98e805f90520bd582802d,ma_choice_v4_social_pilot1,60b98e805f90520bd582802d,0,Indoors vs. outdoors,0,Mostly Outdoors,All Outdoors,direction,2963,,,,,2022-06-27 20:13:30,62669
60b98e805f90520bd582802d,ma_choice_v4_social_pilot1,60b98e805f90520bd582802d,1,Distance from home,0,5 min away,60 min away,direction,2903,,,,,2022-06-27 20:13:37,62682
60b98e805f90520bd582802d,ma_choice_v4_social_pilot1,60b98e805f90520bd582802d,1,Distance from home,0,5 min away,20 min away,direction,1688,,,,,2022-06-27 20:13:39,62685
60b98e805f90520bd582802d,ma_choice_v4_social_pilot1,60b98e805f90520bd582802d,1,Distance from home,0,20 min away,35 min away,direction,1743,,,,,2022-06-27 20:13:40,62688
60b98e805f90520bd582802d,ma_choice_v4_social_pilot1,60b98e805f90520bd582802d,1,Distance from home,0,35 min away,45 min away,direction,1881,,,,,2022-06-27 20:13:43,62691
60b98e805f90520bd582802d,ma_choice_v4_social_pilot1,60b98e805f90520bd582802d,1,Distance from home,0,45 min away,60 min away,direction,1457,,,,,2022-06-27 20:13:44,62695
60b98e805f90520bd582802d,ma_choice_v4_social_pilot1,60b98e805f90520bd582802d,2,Number of other people present,1,3 people,12 people,direction,2831,,,,,2022-06-27 20:13:59,62715
60b98e805f90520bd582802d,ma_choice_v4_social_pilot1,60b98e805f90520bd582802d,2,Number of other people present,1,3 people,5 people,direction,3381,,,,,2022-06-27 20:14:02,62721
60b98e805f90520bd582802d,ma_choice_v4_social_pilot1,60b98e805f90520bd582802d,2,Number of other people present,1,5 people,8 people,direction,2667,,,,,2022-06-27 20:14:05,62724
60b98e805f90520bd582802d,ma_choice_v4_social_pilot1,60b98e805f90520bd582802d,2,Number of other people present,1,8 people,10 people,direction,2060,,,,,2022-06-27 20:14:07,62727
60b98e805f90520bd582802d,ma_choice_v4_social_pilot1,60b98e805f90520bd582802d,2,Number of other people present,1,10 people,12 people,direction,2445,,,,,2022-06-27 20:14:09,62730
60b98e805f90520bd582802d,ma_choice_v4_social_pilot1,60b98e805f90520bd582802d,3,Amount of music,1,None,A Lot,direction,2687,,,,,2022-06-27 20:14:17,62740
60b98e805f90520bd582802d,ma_choice_v4_social_pilot1,60b98e805f90520bd582802d,3,Amount of music,1,None,A Little,direction,2407,,,,,2022-06-27 20:14:19,62746
60b98e805f90520bd582802d,ma_choice_v4_social_pilot1,60b98e805f90520bd582802d,3,Amount of music,1,A Little,A Moderate Amount,direction,2428,,,,,2022-06-27 20:14:23,62750
60b98e805f90520bd582802d,ma_choice_v4_social_pilot1,60b98e805f90520bd582802d,3,Amount of music,1,A Moderate Amount,A Lot,direction,2390,,,,,2022-06-27 20:14:24,62754
60b98e805f90520bd582802d,ma_choice_v4_social_pilot1,60b98e805f90520bd582802d,4,Amount of physical activity,0,None,A Lot,direction,2091,,,,,2022-06-27 20:14:29,62758
60b98e805f90520bd582802d,ma_choice_v4_social_pilot1,60b98e805f90520bd582802d,4,Amount of physical activity,0,None,A Little,direction,1652,,,,,2022-06-27 20:14:30,62759
60b98e805f90520bd582802d,ma_choice_v4_social_pilot1,60b98e805f90520bd582802d,4,Amount of physical activity,0,A Little,A Moderate Amount,direction,1695,,,,,2022-06-27 20:14:32,62760
60b98e805f90520bd582802d,ma_choice_v4_social_pilot1,60b98e805f90520bd582802d,4,Amount of physical activity,0,A Moderate Amount,A Lot,direction,2027,,,,,2022-06-27 20:14:34,62761
60b98e805f90520bd582802d,ma_choice_v4_social_pilot1,60b98e805f90520bd582802d,5,Duration,0,30 minutes,90 minutes,direction,2161,,,,,2022-06-27 20:14:37,62762
