subject,version,assignmentId,trial,practice,opt1_id,opt2_id,attributes,opt1_values,opt2_values,choice,rt,stamp,id
5bff110c1ad00400016981d1,ma_choice_v2_pilot2,"",0,1,-1,-1,"Number of Bedrooms,Hardwood Floors,Proximity to Waterfront/Beaches,Size of Yard,Freshly Painted Exterior,Fireplace,Climate of Area","2 bdrm,No,70 min,Large,No,Yes,Very Bad","3 bdrm,No,70 min,Large,Yes,No,Very Bad",1,22864,2021-10-24 16:13:34,3547
5bff110c1ad00400016981d1,ma_choice_v2_pilot2,"",1,1,-1,-1,"Fireplace,Number of Bedrooms,Reputation of Closest School,Size of Yard,Amount of Natural Light,Proximity to Cafes/Restaurants,Proximity to Parks","No,3 bdrm,Bad,Large,A Little,10 min,5 min","Yes,3 bdrm,Bad,None,A Little,15 min,10 min",0,9291,2021-10-24 16:13:44,3548
5bff110c1ad00400016981d1,ma_choice_v2_pilot2,"",2,1,-1,-1,"Noise Pollution,Age of Building,Freshly Painted Exterior,Hardwood Floors,Size of Home,Number of Bedrooms,Size of Garage","High,New,No,No,781 square feet,4 bdrm,Very Large","Moderate,Medium,Yes,No,1687 square feet,4 bdrm,Large",1,9666,2021-10-24 16:13:55,3549
5bff110c1ad00400016981d1,ma_choice_v2_pilot2,"",3,1,-1,-1,"Washer/Dryer,Noise Pollution,Size of Garage,Proximity to Cafes/Restaurants,Amount of Natural Light,Size of Home,Reputation of Closest School","Yes,Moderate,Medium,5 min,A Lot,1729 square feet,Very Bad","No,Very High,Large,25 min,A Moderate Amount,728 square feet,Bad",0,10447,2021-10-24 16:14:06,3550
5bff110c1ad00400016981d1,ma_choice_v2_pilot2,"",4,1,-1,-1,"Central AC,Proximity to Waterfront/Beaches,Climate of Area,Amount of Natural Light,Size of Garage,Hardwood Floors,Fireplace","No,10 min,Good,A Little,Very Large,No,No","No,90 min,Moderate,A Little,Very Large,No,No",0,7816,2021-10-24 16:14:15,3551
5bff110c1ad00400016981d1,ma_choice_v2_pilot2,"",5,1,-1,-1,"Climate of Area,Amount of Natural Light,Proximity to Cafes/Restaurants,Proximity to Parks,Washer/Dryer,Central AC,Size of Home","Very Bad,A Little,10 min,5 min,Yes,No,601 square feet","Very Bad,A Lot,15 min,5 min,No,Yes,1187 square feet",1,12593,2021-10-24 16:14:29,3552
5bff110c1ad00400016981d1,ma_choice_v2_pilot2,"",6,1,-1,-1,"Fireplace,Size of Home,Climate of Area,Freshly Painted Exterior,Proximity to Cafes/Restaurants,Size of Garage,Size of Yard","No,1377 square feet,Good,No,15 min,Large,Large","No,447 square feet,Very Bad,Yes,5 min,Very Large,Very Large",0,64636,2021-10-24 16:15:34,3553
5bff110c1ad00400016981d1,ma_choice_v2_pilot2,"",7,1,-1,-1,"Washer/Dryer,Size of Home,Proximity to Parks,Size of Yard,Noise Pollution,Hardwood Floors,Reputation of Closest School","Yes,1839 square feet,10 min,None,Very Low,No,Good","Yes,863 square feet,20 min,None,Moderate,Yes,Moderate",0,7681,2021-10-24 16:15:43,3554
5bff110c1ad00400016981d1,ma_choice_v2_pilot2,"",8,1,-1,-1,"Washer/Dryer,Noise Pollution,Central AC,Proximity to Cafes/Restaurants,Climate of Area,Size of Yard,Hardwood Floors","Yes,Very High,No,10 min,Very Bad,None,Yes","No,High,Yes,25 min,Moderate,None,Yes",1,29516,2021-10-24 16:16:14,3555
5bff110c1ad00400016981d1,ma_choice_v2_pilot2,"",9,1,-1,-1,"Age of Building,Proximity to Waterfront/Beaches,Proximity to Parks,Climate of Area,Hardwood Floors,Reputation of Closest School,Amount of Natural Light","Old,30 min,25 min,Very Bad,Yes,Bad,A Moderate Amount","Medium,30 min,15 min,Bad,Yes,Very Good,A Little",1,25978,2021-10-24 16:16:41,3556
5bff110c1ad00400016981d1,ma_choice_v2_pilot2,"",0,0,-1,-1,"Proximity to Parks,Proximity to Cafes/Restaurants,Freshly Painted Exterior,Central AC,Size of Home,Hardwood Floors,Age of Building","20 min,10 min,No,No,896 square feet,Yes,Medium","5 min,5 min,Yes,Yes,1747 square feet,No,New",1,8081,2021-10-24 16:17:03,3557
5bff110c1ad00400016981d1,ma_choice_v2_pilot2,"",1,0,-1,-1,"Climate of Area,Washer/Dryer,Reputation of Closest School,Hardwood Floors,Proximity to Parks,Amount of Natural Light,Size of Yard","Moderate,Yes,Very Bad,Yes,15 min,A Moderate Amount,Very Large","Very Bad,No,Bad,Yes,5 min,Very Little,Medium",0,33305,2021-10-24 16:17:37,3558
5bff110c1ad00400016981d1,ma_choice_v2_pilot2,"",2,0,-1,-1,"Fireplace,Reputation of Closest School,Climate of Area,Proximity to Parks,Size of Garage,Proximity to Cafes/Restaurants,Noise Pollution","Yes,Bad,Moderate,5 min,Medium,10 min,High","No,Very Good,Moderate,15 min,Large,20 min,Moderate",1,43277,2021-10-24 16:18:22,3559
5bff110c1ad00400016981d1,ma_choice_v2_pilot2,"",3,0,-1,-1,"Proximity to Waterfront/Beaches,Proximity to Cafes/Restaurants,Size of Garage,Central AC,Proximity to Parks,Size of Home,Hardwood Floors","90 min,15 min,None,Yes,20 min,899 square feet,No","50 min,20 min,Large,No,15 min,761 square feet,No",0,9110,2021-10-24 16:18:31,3560
5bff110c1ad00400016981d1,ma_choice_v2_pilot2,"",4,0,-1,-1,"Fireplace,Proximity to Parks,Amount of Natural Light,Age of Building,Proximity to Cafes/Restaurants,Number of Bedrooms,Reputation of Closest School","Yes,15 min,A Moderate Amount,Old,5 min,2 bdrm,Bad","No,15 min,A Little,Old,20 min,4 bdrm,Bad",1,22522,2021-10-24 16:18:55,3561
5bff110c1ad00400016981d1,ma_choice_v2_pilot2,"",5,0,-1,-1,"Hardwood Floors,Reputation of Closest School,Proximity to Cafes/Restaurants,Number of Bedrooms,Washer/Dryer,Size of Home,Fireplace","Yes,Very Bad,25 min,2 bdrm,Yes,1269 square feet,No","Yes,Moderate,5 min,3 bdrm,No,1074 square feet,No",0,52433,2021-10-24 16:19:48,3562
5bff110c1ad00400016981d1,ma_choice_v2_pilot2,"",6,0,-1,-1,"Reputation of Closest School,Central AC,Proximity to Parks,Size of Yard,Size of Garage,Fireplace,Freshly Painted Exterior","Very Bad,Yes,5 min,Very Large,Very Large,No,No","Very Good,Yes,20 min,Medium,Very Large,Yes,Yes",1,10648,2021-10-24 16:20:00,3563
5bff110c1ad00400016981d1,ma_choice_v2_pilot2,"",7,0,-1,-1,"Proximity to Cafes/Restaurants,Reputation of Closest School,Climate of Area,Proximity to Parks,Washer/Dryer,Fireplace,Size of Garage","15 min,Very Bad,Very Bad,10 min,No,Yes,Medium","25 min,Good,Good,10 min,No,Yes,Large",1,16577,2021-10-24 16:20:18,3564
5bff110c1ad00400016981d1,ma_choice_v2_pilot2,"",8,0,-1,-1,"Proximity to Cafes/Restaurants,Central AC,Size of Home,Age of Building,Fireplace,Noise Pollution,Proximity to Parks","10 min,No,1317 square feet,New,Yes,Very High,25 min","5 min,No,425 square feet,Medium,Yes,Low,10 min",0,19684,2021-10-24 16:20:38,3565
5bff110c1ad00400016981d1,ma_choice_v2_pilot2,"",9,0,-1,-1,"Climate of Area,Washer/Dryer,Central AC,Size of Garage,Reputation of Closest School,Amount of Natural Light,Freshly Painted Exterior","Good,No,No,Small,Very Good,Very Little,No","Moderate,Yes,No,None,Very Bad,A Little,No",1,45819,2021-10-24 16:21:25,3566
5bff110c1ad00400016981d1,ma_choice_v2_pilot2,"",10,0,-1,-1,"Central AC,Number of Bedrooms,Freshly Painted Exterior,Age of Building,Hardwood Floors,Noise Pollution,Proximity to Cafes/Restaurants","Yes,2 bdrm,No,New,No,Low,10 min","No,1 bdrm,No,Medium,No,Moderate,5 min",0,7721,2021-10-24 16:21:34,3567
5bff110c1ad00400016981d1,ma_choice_v2_pilot2,"",11,0,-1,-1,"Hardwood Floors,Size of Home,Central AC,Proximity to Parks,Proximity to Waterfront/Beaches,Size of Garage,Proximity to Cafes/Restaurants","No,411 square feet,Yes,5 min,30 min,None,15 min","Yes,456 square feet,No,25 min,50 min,Medium,5 min",1,23958,2021-10-24 16:21:59,3568
5bff110c1ad00400016981d1,ma_choice_v2_pilot2,"",12,0,-1,-1,"Noise Pollution,Fireplace,Reputation of Closest School,Proximity to Cafes/Restaurants,Size of Yard,Washer/Dryer,Hardwood Floors","Moderate,No,Moderate,25 min,Very Large,No,No","Low,No,Good,5 min,Large,Yes,Yes",1,21751,2021-10-24 16:22:22,3569
5bff110c1ad00400016981d1,ma_choice_v2_pilot2,"",13,0,-1,-1,"Proximity to Parks,Hardwood Floors,Washer/Dryer,Reputation of Closest School,Size of Home,Fireplace,Noise Pollution","20 min,No,No,Very Good,1011 square feet,Yes,Low","5 min,Yes,Yes,Good,1224 square feet,Yes,High",0,30988,2021-10-24 16:22:54,3570
5bff110c1ad00400016981d1,ma_choice_v2_pilot2,"",14,0,-1,-1,"Age of Building,Noise Pollution,Size of Yard,Number of Bedrooms,Freshly Painted Exterior,Proximity to Cafes/Restaurants,Proximity to Parks","Medium,Moderate,Small,2 bdrm,Yes,25 min,20 min","Medium,Low,Medium,4 bdrm,No,10 min,15 min",1,11615,2021-10-24 16:23:06,3571
5bff110c1ad00400016981d1,ma_choice_v2_pilot2,"",15,0,-1,-1,"Central AC,Proximity to Parks,Number of Bedrooms,Size of Yard,Proximity to Cafes/Restaurants,Proximity to Waterfront/Beaches,Washer/Dryer","Yes,5 min,4 bdrm,Small,10 min,50 min,Yes","Yes,15 min,2 bdrm,None,20 min,10 min,Yes",0,23758,2021-10-24 16:23:31,3572
5bff110c1ad00400016981d1,ma_choice_v2_pilot2,"",16,0,-1,-1,"Climate of Area,Washer/Dryer,Noise Pollution,Hardwood Floors,Size of Home,Proximity to Parks,Proximity to Waterfront/Beaches","Very Good,No,Moderate,Yes,848 square feet,15 min,70 min","Very Good,No,Very High,No,1812 square feet,25 min,70 min",1,89556,2021-10-24 16:25:02,3573
5bff110c1ad00400016981d1,ma_choice_v2_pilot2,"",17,0,-1,-1,"Freshly Painted Exterior,Proximity to Parks,Hardwood Floors,Noise Pollution,Amount of Natural Light,Size of Garage,Reputation of Closest School","No,25 min,No,Very High,A Moderate Amount,Medium,Very Good","No,20 min,No,Low,A Moderate Amount,Large,Bad",1,11645,2021-10-24 16:25:14,3574
5bff110c1ad00400016981d1,ma_choice_v2_pilot2,"",18,0,-1,-1,"Proximity to Cafes/Restaurants,Size of Home,Freshly Painted Exterior,Age of Building,Climate of Area,Proximity to Parks,Central AC","25 min,901 square feet,No,Medium,Very Bad,20 min,No","20 min,1420 square feet,No,New,Good,15 min,Yes",1,10986,2021-10-24 16:25:26,3575
5bff110c1ad00400016981d1,ma_choice_v2_pilot2,"",19,0,-1,-1,"Fireplace,Climate of Area,Noise Pollution,Proximity to Cafes/Restaurants,Number of Bedrooms,Size of Home,Hardwood Floors","No,Very Good,Very High,5 min,2 bdrm,486 square feet,Yes","Yes,Bad,Moderate,15 min,4 bdrm,1271 square feet,No",1,59663,2021-10-24 16:26:27,3576
5bff110c1ad00400016981d1,ma_choice_v2_pilot2,"",20,0,-1,-1,"Proximity to Cafes/Restaurants,Climate of Area,Proximity to Parks,Number of Bedrooms,Reputation of Closest School,Size of Garage,Fireplace","10 min,Good,20 min,2 bdrm,Bad,Very Large,Yes","15 min,Bad,20 min,3 bdrm,Good,Small,No",0,7735,2021-10-24 16:26:36,3577
5bff110c1ad00400016981d1,ma_choice_v2_pilot2,"",21,0,-1,-1,"Washer/Dryer,Proximity to Parks,Hardwood Floors,Size of Yard,Amount of Natural Light,Freshly Painted Exterior,Fireplace","No,20 min,Yes,Small,Very Little,No,Yes","Yes,5 min,No,None,Very Little,Yes,No",0,19528,2021-10-24 16:26:56,3578
5bff110c1ad00400016981d1,ma_choice_v2_pilot2,"",22,0,-1,-1,"Amount of Natural Light,Fireplace,Proximity to Waterfront/Beaches,Size of Yard,Size of Garage,Washer/Dryer,Proximity to Cafes/Restaurants","A Moderate Amount,Yes,30 min,Medium,Very Large,No,25 min","Very Little,No,90 min,Very Large,Small,Yes,10 min",1,80951,2021-10-24 16:28:18,3579
5bff110c1ad00400016981d1,ma_choice_v2_pilot2,"",23,0,-1,-1,"Fireplace,Number of Bedrooms,Hardwood Floors,Reputation of Closest School,Noise Pollution,Amount of Natural Light,Freshly Painted Exterior","Yes,1 bdrm,Yes,Very Good,Moderate,Very Little,Yes","Yes,3 bdrm,Yes,Bad,Low,A Lot,No",1,17841,2021-10-24 16:28:37,3580
5bff110c1ad00400016981d1,ma_choice_v2_pilot2,"",24,0,-1,-1,"Fireplace,Proximity to Parks,Age of Building,Proximity to Waterfront/Beaches,Size of Yard,Hardwood Floors,Size of Garage","No,25 min,Medium,30 min,None,No,Medium","Yes,10 min,New,70 min,Small,No,Medium",1,33532,2021-10-24 16:29:11,3581
5bff110c1ad00400016981d1,ma_choice_v2_pilot2,"",25,0,-1,-1,"Amount of Natural Light,Noise Pollution,Proximity to Cafes/Restaurants,Hardwood Floors,Proximity to Parks,Climate of Area,Proximity to Waterfront/Beaches","Very Little,Low,10 min,No,5 min,Very Bad,90 min","Very Little,Low,20 min,Yes,25 min,Good,50 min",1,19567,2021-10-24 16:29:32,3582
5bff110c1ad00400016981d1,ma_choice_v2_pilot2,"",26,0,-1,-1,"Size of Yard,Age of Building,Fireplace,Climate of Area,Hardwood Floors,Freshly Painted Exterior,Proximity to Waterfront/Beaches","Small,Medium,Yes,Very Good,Yes,No,50 min","Large,Medium,No,Very Bad,Yes,No,50 min",1,21262,2021-10-24 16:29:54,3583
5bff110c1ad00400016981d1,ma_choice_v2_pilot2,"",27,0,-1,-1,"Freshly Painted Exterior,Size of Yard,Hardwood Floors,Size of Home,Climate of Area,Noise Pollution,Fireplace","No,None,Yes,1824 square feet,Very Good,Moderate,No","No,Very Large,Yes,1666 square feet,Very Bad,Very High,No",1,25332,2021-10-24 16:30:21,3584
5bff110c1ad00400016981d1,ma_choice_v2_pilot2,"",28,0,-1,-1,"Number of Bedrooms,Freshly Painted Exterior,Size of Garage,Washer/Dryer,Climate of Area,Proximity to Waterfront/Beaches,Hardwood Floors","3 bdrm,No,Small,No,Moderate,70 min,No","3 bdrm,No,Medium,No,Good,90 min,Yes",1,75531,2021-10-24 16:31:37,3585
5bff110c1ad00400016981d1,ma_choice_v2_pilot2,"",29,0,-1,-1,"Central AC,Fireplace,Proximity to Parks,Noise Pollution,Proximity to Waterfront/Beaches,Freshly Painted Exterior,Hardwood Floors","Yes,No,5 min,Very High,50 min,Yes,Yes","Yes,Yes,25 min,Moderate,90 min,Yes,Yes",1,24075,2021-10-24 16:32:02,3586
5bff110c1ad00400016981d1,ma_choice_v2_pilot2,"",30,0,-1,-1,"Noise Pollution,Size of Home,Hardwood Floors,Central AC,Age of Building,Size of Yard,Reputation of Closest School","High,577 square feet,Yes,No,New,Very Large,Very Bad","Very Low,1406 square feet,Yes,No,Medium,Large,Bad",1,61153,2021-10-24 16:33:04,3587
5bff110c1ad00400016981d1,ma_choice_v2_pilot2,"",31,0,-1,-1,"Proximity to Waterfront/Beaches,Fireplace,Proximity to Cafes/Restaurants,Proximity to Parks,Size of Home,Hardwood Floors,Washer/Dryer","30 min,No,10 min,10 min,1254 square feet,Yes,Yes","90 min,Yes,15 min,25 min,1162 square feet,No,Yes",0,33990,2021-10-24 16:33:39,3588
5bff110c1ad00400016981d1,ma_choice_v2_pilot2,"",32,0,-1,-1,"Climate of Area,Freshly Painted Exterior,Size of Garage,Amount of Natural Light,Proximity to Cafes/Restaurants,Washer/Dryer,Reputation of Closest School","Good,Yes,Large,Very Little,15 min,No,Bad","Good,Yes,Medium,A Lot,10 min,Yes,Very Good",0,52712,2021-10-24 16:34:33,3589
5bff110c1ad00400016981d1,ma_choice_v2_pilot2,"",33,0,-1,-1,"Fireplace,Hardwood Floors,Size of Home,Amount of Natural Light,Proximity to Cafes/Restaurants,Proximity to Parks,Number of Bedrooms","No,Yes,857 square feet,A Lot,5 min,15 min,3 bdrm","No,Yes,1271 square feet,A Moderate Amount,5 min,15 min,2 bdrm",1,7419,2021-10-24 16:34:41,3590
5bff110c1ad00400016981d1,ma_choice_v2_pilot2,"",34,0,-1,-1,"Amount of Natural Light,Size of Home,Reputation of Closest School,Hardwood Floors,Proximity to Parks,Proximity to Cafes/Restaurants,Size of Yard","A Lot,1342 square feet,Moderate,Yes,25 min,15 min,Large","A Lot,1283 square feet,Bad,Yes,15 min,20 min,Very Large",0,13792,2021-10-24 16:34:56,3591
5bff110c1ad00400016981d1,ma_choice_v2_pilot2,"",35,0,-1,-1,"Size of Yard,Proximity to Waterfront/Beaches,Freshly Painted Exterior,Age of Building,Size of Home,Washer/Dryer,Climate of Area","Medium,30 min,Yes,Old,1736 square feet,No,Good","Very Large,90 min,Yes,Medium,1595 square feet,Yes,Good",0,9940,2021-10-24 16:35:07,3592
5bff110c1ad00400016981d1,ma_choice_v2_pilot2,"",36,0,-1,-1,"Washer/Dryer,Noise Pollution,Number of Bedrooms,Freshly Painted Exterior,Central AC,Proximity to Parks,Proximity to Waterfront/Beaches","No,Low,4 bdrm,Yes,No,10 min,70 min","No,Low,1 bdrm,No,No,5 min,10 min",0,9152,2021-10-24 16:35:17,3593
5bff110c1ad00400016981d1,ma_choice_v2_pilot2,"",37,0,-1,-1,"Climate of Area,Hardwood Floors,Proximity to Waterfront/Beaches,Proximity to Parks,Size of Home,Freshly Painted Exterior,Proximity to Cafes/Restaurants","Very Bad,No,50 min,20 min,1767 square feet,Yes,10 min","Very Bad,Yes,90 min,5 min,712 square feet,Yes,20 min",0,17932,2021-10-24 16:35:36,3594
5bff110c1ad00400016981d1,ma_choice_v2_pilot2,"",38,0,-1,-1,"Central AC,Number of Bedrooms,Size of Home,Size of Yard,Climate of Area,Proximity to Parks,Proximity to Cafes/Restaurants","No,4 bdrm,1096 square feet,Medium,Very Bad,15 min,10 min","Yes,3 bdrm,703 square feet,Small,Very Bad,10 min,20 min",1,25360,2021-10-24 16:36:03,3595
5bff110c1ad00400016981d1,ma_choice_v2_pilot2,"",39,0,-1,-1,"Reputation of Closest School,Size of Garage,Size of Home,Size of Yard,Proximity to Waterfront/Beaches,Central AC,Freshly Painted Exterior","Moderate,None,696 square feet,None,50 min,No,No","Very Good,Very Large,1197 square feet,Small,10 min,Yes,No",1,18092,2021-10-24 16:36:22,3596
5bff110c1ad00400016981d1,ma_choice_v2_pilot2,"",40,0,-1,-1,"Proximity to Parks,Washer/Dryer,Size of Yard,Proximity to Cafes/Restaurants,Size of Garage,Central AC,Amount of Natural Light","10 min,No,Large,15 min,Large,Yes,A Little","25 min,Yes,Large,25 min,Large,No,A Little",0,15822,2021-10-24 16:36:39,3597
5bff110c1ad00400016981d1,ma_choice_v2_pilot2,"",41,0,-1,-1,"Washer/Dryer,Proximity to Parks,Freshly Painted Exterior,Proximity to Cafes/Restaurants,Proximity to Waterfront/Beaches,Size of Home,Age of Building","Yes,10 min,Yes,25 min,70 min,796 square feet,Medium","Yes,10 min,Yes,5 min,30 min,1529 square feet,New",1,9622,2021-10-24 16:36:49,3598
5bff110c1ad00400016981d1,ma_choice_v2_pilot2,"",42,0,-1,-1,"Noise Pollution,Freshly Painted Exterior,Size of Garage,Central AC,Proximity to Waterfront/Beaches,Age of Building,Reputation of Closest School","High,No,Very Large,No,10 min,Medium,Bad","Moderate,Yes,Large,No,50 min,Old,Moderate",0,99480,2021-10-24 16:38:30,3599
5bff110c1ad00400016981d1,ma_choice_v2_pilot2,"",43,0,-1,-1,"Size of Home,Amount of Natural Light,Proximity to Waterfront/Beaches,Freshly Painted Exterior,Proximity to Cafes/Restaurants,Fireplace,Noise Pollution","850 square feet,Very Little,70 min,No,20 min,No,Low","911 square feet,A Little,10 min,Yes,20 min,No,Very High",0,30218,2021-10-24 16:39:01,3600
5bff110c1ad00400016981d1,ma_choice_v2_pilot2,"",44,0,-1,-1,"Size of Garage,Size of Home,Reputation of Closest School,Freshly Painted Exterior,Climate of Area,Amount of Natural Light,Central AC","Medium,1544 square feet,Good,No,Good,A Little,No","Very Large,804 square feet,Bad,No,Very Bad,Very Little,No",0,7415,2021-10-24 16:39:09,3601
5bff110c1ad00400016981d1,ma_choice_v2_pilot2,"",45,0,-1,-1,"Number of Bedrooms,Size of Home,Washer/Dryer,Size of Garage,Climate of Area,Freshly Painted Exterior,Noise Pollution","4 bdrm,809 square feet,No,Large,Very Good,Yes,Moderate","2 bdrm,1209 square feet,Yes,Large,Bad,Yes,Moderate",1,8030,2021-10-24 16:39:19,3602
5bff110c1ad00400016981d1,ma_choice_v2_pilot2,"",46,0,-1,-1,"Amount of Natural Light,Reputation of Closest School,Freshly Painted Exterior,Age of Building,Size of Garage,Central AC,Size of Yard","A Lot,Very Good,Yes,New,None,No,Very Large","Very Little,Bad,Yes,Medium,Medium,Yes,Large",1,8767,2021-10-24 16:39:28,3603
5be9fd84271bf10001525264,ma_choice_v2_pilot2,"",0,1,-1,-1,"Fireplace,Size of Garage,Reputation of Closest School,Central AC,Size of Yard,Noise Pollution,Proximity to Waterfront/Beaches","No,Small,Moderate,No,Small,Very Low,10 min","Yes,Large,Moderate,Yes,Large,High,70 min",0,43305,2021-10-24 16:39:28,3604
5be9fd84271bf10001525264,ma_choice_v2_pilot2,"",1,1,-1,-1,"Climate of Area,Washer/Dryer,Size of Garage,Freshly Painted Exterior,Proximity to Cafes/Restaurants,Reputation of Closest School,Hardwood Floors","Very Good,Yes,Very Large,Yes,5 min,Bad,Yes","Moderate,Yes,Small,No,15 min,Good,Yes",0,15213,2021-10-24 16:39:37,3605
5bff110c1ad00400016981d1,ma_choice_v2_pilot2,"",47,0,-1,-1,"Freshly Painted Exterior,Reputation of Closest School,Size of Yard,Age of Building,Noise Pollution,Amount of Natural Light,Proximity to Waterfront/Beaches","No,Very Good,Large,New,Moderate,A Little,50 min","Yes,Very Bad,None,Old,Very Low,A Moderate Amount,70 min",0,32719,2021-10-24 16:40:02,3606
5be9fd84271bf10001525264,ma_choice_v2_pilot2,"",2,1,-1,-1,"Freshly Painted Exterior,Climate of Area,Noise Pollution,Size of Home,Proximity to Parks,Proximity to Cafes/Restaurants,Reputation of Closest School","No,Very Bad,High,1847 square feet,15 min,15 min,Very Bad","No,Good,Very Low,1298 square feet,5 min,25 min,Very Good",1,12449,2021-10-24 16:40:09,3607
5be9fd84271bf10001525264,ma_choice_v2_pilot2,"",3,1,-1,-1,"Number of Bedrooms,Climate of Area,Central AC,Age of Building,Fireplace,Size of Yard,Proximity to Waterfront/Beaches","3 bdrm,Good,No,New,Yes,Medium,50 min","2 bdrm,Good,Yes,Medium,Yes,None,70 min",0,10731,2021-10-24 16:40:09,3608
5bff110c1ad00400016981d1,ma_choice_v2_pilot2,"",48,0,-1,-1,"Size of Garage,Washer/Dryer,Proximity to Cafes/Restaurants,Central AC,Hardwood Floors,Fireplace,Size of Yard","Very Large,Yes,15 min,No,No,Yes,None","Medium,Yes,20 min,No,Yes,No,Very Large",1,8342,2021-10-24 16:40:11,3609
5be9fd84271bf10001525264,ma_choice_v2_pilot2,"",4,1,-1,-1,"Age of Building,Proximity to Cafes/Restaurants,Proximity to Parks,Number of Bedrooms,Size of Yard,Proximity to Waterfront/Beaches,Size of Garage","Old,20 min,5 min,2 bdrm,Medium,30 min,Medium","Old,15 min,15 min,3 bdrm,None,90 min,Small",0,15369,2021-10-24 16:40:17,3610
5bff110c1ad00400016981d1,ma_choice_v2_pilot2,"",49,0,-1,-1,"Noise Pollution,Amount of Natural Light,Reputation of Closest School,Proximity to Waterfront/Beaches,Size of Home,Size of Garage,Freshly Painted Exterior","Low,A Lot,Bad,10 min,1582 square feet,Small,Yes","High,A Lot,Moderate,30 min,1096 square feet,Medium,No",0,7614,2021-10-24 16:40:20,3611
5be9fd84271bf10001525264,ma_choice_v2_pilot2,"",5,1,-1,-1,"Washer/Dryer,Reputation of Closest School,Proximity to Waterfront/Beaches,Fireplace,Size of Garage,Noise Pollution,Amount of Natural Light","No,Bad,30 min,No,Medium,Very Low,A Moderate Amount","No,Very Good,50 min,No,Small,Moderate,A Moderate Amount",0,15132,2021-10-24 16:40:34,3612
5bff110c1ad00400016981d1,ma_choice_v2_pilot2,"",50,0,-1,-1,"Proximity to Parks,Freshly Painted Exterior,Amount of Natural Light,Climate of Area,Proximity to Waterfront/Beaches,Size of Garage,Reputation of Closest School","20 min,Yes,A Moderate Amount,Bad,30 min,Very Large,Bad","10 min,Yes,Very Little,Moderate,50 min,None,Good",0,15907,2021-10-24 16:40:37,3613
5be9fd84271bf10001525264,ma_choice_v2_pilot2,"",6,1,-1,-1,"Age of Building,Climate of Area,Hardwood Floors,Number of Bedrooms,Size of Yard,Proximity to Waterfront/Beaches,Proximity to Parks","New,Very Bad,No,1 bdrm,Small,10 min,5 min","New,Moderate,No,2 bdrm,Very Large,30 min,25 min",1,10530,2021-10-24 16:40:45,3614
5bff110c1ad00400016981d1,ma_choice_v2_pilot2,"",51,0,-1,-1,"Climate of Area,Size of Garage,Freshly Painted Exterior,Proximity to Cafes/Restaurants,Size of Home,Size of Yard,Washer/Dryer","Bad,None,Yes,25 min,633 square feet,Small,No","Moderate,Medium,No,20 min,672 square feet,Medium,Yes",1,15267,2021-10-24 16:40:53,3615
5be9fd84271bf10001525264,ma_choice_v2_pilot2,"",7,1,-1,-1,"Size of Garage,Fireplace,Age of Building,Climate of Area,Washer/Dryer,Number of Bedrooms,Proximity to Parks","None,Yes,Old,Moderate,No,2 bdrm,25 min","Medium,Yes,Medium,Very Bad,Yes,4 bdrm,20 min",1,15603,2021-10-24 16:41:02,3616
5be9fd84271bf10001525264,ma_choice_v2_pilot2,"",8,1,-1,-1,"Central AC,Size of Yard,Amount of Natural Light,Age of Building,Washer/Dryer,Hardwood Floors,Proximity to Parks","Yes,Large,A Moderate Amount,Medium,Yes,No,20 min","Yes,Medium,Very Little,Medium,Yes,No,20 min",0,10626,2021-10-24 16:41:14,3617
5bff110c1ad00400016981d1,ma_choice_v2_pilot2,"",52,0,-1,-1,"Size of Yard,Washer/Dryer,Climate of Area,Proximity to Parks,Size of Garage,Proximity to Cafes/Restaurants,Freshly Painted Exterior","Very Large,No,Bad,10 min,Small,10 min,No","Medium,No,Very Good,25 min,Very Large,20 min,No",0,21575,2021-10-24 16:41:16,3618
5be9fd84271bf10001525264,ma_choice_v2_pilot2,"",9,1,-1,-1,"Proximity to Waterfront/Beaches,Number of Bedrooms,Freshly Painted Exterior,Climate of Area,Proximity to Parks,Size of Garage,Size of Home","10 min,4 bdrm,No,Good,15 min,Small,1777 square feet","30 min,1 bdrm,No,Bad,10 min,Small,895 square feet",0,8300,2021-10-24 16:41:23,3619
5bff110c1ad00400016981d1,ma_choice_v2_pilot2,"",53,0,-1,-1,"Reputation of Closest School,Number of Bedrooms,Size of Home,Fireplace,Size of Garage,Central AC,Proximity to Waterfront/Beaches","Moderate,4 bdrm,1921 square feet,Yes,None,Yes,90 min","Very Good,2 bdrm,1599 square feet,Yes,Medium,Yes,90 min",0,10582,2021-10-24 16:41:27,3620
5bff110c1ad00400016981d1,ma_choice_v2_pilot2,"",54,0,-1,-1,"Size of Yard,Central AC,Fireplace,Size of Home,Freshly Painted Exterior,Reputation of Closest School,Noise Pollution","Very Large,No,No,1005 square feet,Yes,Moderate,Very High","None,No,Yes,788 square feet,Yes,Very Good,Low",0,9318,2021-10-24 16:41:37,3621
5bff110c1ad00400016981d1,ma_choice_v2_pilot2,"",55,0,-1,-1,"Proximity to Parks,Central AC,Freshly Painted Exterior,Washer/Dryer,Reputation of Closest School,Size of Yard,Hardwood Floors","5 min,Yes,No,Yes,Moderate,Small,Yes","25 min,No,Yes,No,Moderate,None,No",0,7613,2021-10-24 16:41:46,3622
5bff110c1ad00400016981d1,ma_choice_v2_pilot2,"",56,0,-1,-1,"Number of Bedrooms,Size of Yard,Amount of Natural Light,Central AC,Proximity to Cafes/Restaurants,Climate of Area,Size of Home","3 bdrm,Very Large,A Lot,Yes,20 min,Bad,978 square feet","4 bdrm,Small,A Little,Yes,5 min,Moderate,1125 square feet",0,7619,2021-10-24 16:41:55,3623
5bff110c1ad00400016981d1,ma_choice_v2_pilot2,"",57,0,-1,-1,"Fireplace,Hardwood Floors,Washer/Dryer,Proximity to Waterfront/Beaches,Size of Garage,Age of Building,Noise Pollution","No,No,Yes,90 min,Small,Medium,Moderate","Yes,No,Yes,10 min,Medium,New,Very High",1,16619,2021-10-24 16:42:12,3624
5be9fd84271bf10001525264,ma_choice_v2_pilot2,"",0,0,-1,-1,"Freshly Painted Exterior,Number of Bedrooms,Proximity to Waterfront/Beaches,Size of Yard,Central AC,Washer/Dryer,Age of Building","No,1 bdrm,10 min,Large,Yes,No,New","Yes,1 bdrm,50 min,None,Yes,No,New",0,24139,2021-10-24 16:42:15,3625
5bff110c1ad00400016981d1,ma_choice_v2_pilot2,"",58,0,-1,-1,"Number of Bedrooms,Noise Pollution,Reputation of Closest School,Washer/Dryer,Proximity to Waterfront/Beaches,Fireplace,Size of Yard","3 bdrm,Very Low,Moderate,No,10 min,No,None","2 bdrm,Very High,Good,No,90 min,No,Small",1,9815,2021-10-24 16:42:23,3626
5be9fd84271bf10001525264,ma_choice_v2_pilot2,"",1,0,-1,-1,"Central AC,Proximity to Waterfront/Beaches,Proximity to Parks,Number of Bedrooms,Size of Garage,Proximity to Cafes/Restaurants,Freshly Painted Exterior","No,70 min,5 min,3 bdrm,Large,5 min,Yes","Yes,70 min,5 min,2 bdrm,Very Large,15 min,Yes",0,20637,2021-10-24 16:42:31,3627
5bff110c1ad00400016981d1,ma_choice_v2_pilot2,"",59,0,-1,-1,"Size of Garage,Age of Building,Washer/Dryer,Proximity to Cafes/Restaurants,Noise Pollution,Proximity to Parks,Amount of Natural Light","None,Old,No,10 min,Moderate,15 min,A Lot","Large,Old,No,20 min,Very Low,10 min,Very Little",1,10499,2021-10-24 16:42:35,3628
5bff110c1ad00400016981d1,ma_choice_v2_pilot2,"",60,0,-1,-1,"Age of Building,Size of Garage,Proximity to Cafes/Restaurants,Central AC,Fireplace,Amount of Natural Light,Number of Bedrooms","New,Small,20 min,No,No,A Moderate Amount,4 bdrm","Medium,Medium,15 min,Yes,Yes,A Lot,4 bdrm",1,9025,2021-10-24 16:42:45,3629
5be9fd84271bf10001525264,ma_choice_v2_pilot2,"",2,0,-1,-1,"Proximity to Cafes/Restaurants,Fireplace,Age of Building,Central AC,Washer/Dryer,Freshly Painted Exterior,Number of Bedrooms","5 min,No,New,Yes,Yes,Yes,3 bdrm","25 min,Yes,Medium,Yes,Yes,No,1 bdrm",0,15997,2021-10-24 16:42:48,3630
5be9fd84271bf10001525264,ma_choice_v2_pilot2,"",3,0,-1,-1,"Proximity to Cafes/Restaurants,Proximity to Parks,Washer/Dryer,Size of Home,Climate of Area,Proximity to Waterfront/Beaches,Size of Yard","5 min,25 min,Yes,1683 square feet,Good,50 min,Medium","25 min,5 min,Yes,403 square feet,Bad,10 min,None",1,17239,2021-10-24 16:43:07,3631
5bff110c1ad00400016981d1,ma_choice_v2_pilot2,"",61,0,-1,-1,"Age of Building,Fireplace,Proximity to Parks,Size of Garage,Freshly Painted Exterior,Noise Pollution,Amount of Natural Light","Old,No,10 min,None,No,Very Low,A Lot","Old,No,5 min,Large,No,Moderate,Very Little",1,32587,2021-10-24 16:43:18,3632
5bff110c1ad00400016981d1,ma_choice_v2_pilot2,"",62,0,-1,-1,"Size of Home,Amount of Natural Light,Noise Pollution,Proximity to Waterfront/Beaches,Proximity to Cafes/Restaurants,Hardwood Floors,Washer/Dryer","759 square feet,Very Little,High,70 min,15 min,No,Yes","1393 square feet,A Little,High,50 min,10 min,Yes,Yes",1,7820,2021-10-24 16:43:27,3633
5be9fd84271bf10001525264,ma_choice_v2_pilot2,"",4,0,-1,-1,"Reputation of Closest School,Size of Yard,Size of Garage,Washer/Dryer,Hardwood Floors,Amount of Natural Light,Central AC","Bad,Large,Small,No,Yes,Very Little,Yes","Very Bad,Very Large,None,No,Yes,A Little,Yes",0,23599,2021-10-24 16:43:31,3634
5be9fd84271bf10001525264,ma_choice_v2_pilot2,"",5,0,-1,-1,"Washer/Dryer,Hardwood Floors,Size of Garage,Fireplace,Proximity to Waterfront/Beaches,Central AC,Reputation of Closest School","No,Yes,None,No,90 min,No,Good","Yes,Yes,Small,No,10 min,No,Moderate",1,15675,2021-10-24 16:43:55,3635
5be9fd84271bf10001525264,ma_choice_v2_pilot2,"",6,0,-1,-1,"Noise Pollution,Proximity to Cafes/Restaurants,Proximity to Waterfront/Beaches,Size of Garage,Central AC,Reputation of Closest School,Climate of Area","Very Low,10 min,90 min,Medium,No,Bad,Good","Low,5 min,10 min,Small,Yes,Bad,Very Good",1,14829,2021-10-24 16:44:03,3636
5be9fd84271bf10001525264,ma_choice_v2_pilot2,"",7,0,-1,-1,"Central AC,Size of Yard,Fireplace,Proximity to Parks,Climate of Area,Hardwood Floors,Freshly Painted Exterior","Yes,Very Large,No,25 min,Very Good,No,No","Yes,None,No,20 min,Very Good,Yes,No",0,13642,2021-10-24 16:44:18,3637
5bff110c1ad00400016981d1,ma_choice_v2_pilot2,"",63,0,-1,-1,"Proximity to Parks,Climate of Area,Proximity to Waterfront/Beaches,Freshly Painted Exterior,Reputation of Closest School,Noise Pollution,Hardwood Floors","20 min,Very Bad,50 min,No,Very Good,Very Low,Yes","25 min,Very Good,70 min,Yes,Bad,Very Low,No",1,54333,2021-10-24 16:44:22,3638
5be9fd84271bf10001525264,ma_choice_v2_pilot2,"",8,0,-1,-1,"Amount of Natural Light,Freshly Painted Exterior,Proximity to Parks,Proximity to Cafes/Restaurants,Age of Building,Size of Yard,Hardwood Floors","A Little,No,25 min,15 min,Old,Large,No","A Moderate Amount,No,10 min,15 min,Medium,Very Large,Yes",1,28799,2021-10-24 16:44:48,3639
5be9fd84271bf10001525264,ma_choice_v2_pilot2,"",9,0,-1,-1,"Size of Home,Reputation of Closest School,Fireplace,Climate of Area,Noise Pollution,Washer/Dryer,Central AC","1373 square feet,Very Bad,No,Bad,Very Low,Yes,Yes","1216 square feet,Moderate,Yes,Very Bad,Moderate,Yes,Yes",0,12920,2021-10-24 16:45:03,3640
5bff110c1ad00400016981d1,ma_choice_v2_pilot2,"",64,0,-1,-1,"Age of Building,Fireplace,Proximity to Waterfront/Beaches,Central AC,Washer/Dryer,Freshly Painted Exterior,Proximity to Parks","Medium,Yes,50 min,No,Yes,No,5 min","Medium,Yes,30 min,No,Yes,Yes,15 min",0,45537,2021-10-24 16:45:09,3641
5be9fd84271bf10001525264,ma_choice_v2_pilot2,"",10,0,-1,-1,"Fireplace,Size of Yard,Freshly Painted Exterior,Proximity to Cafes/Restaurants,Hardwood Floors,Reputation of Closest School,Size of Garage","No,None,Yes,20 min,Yes,Bad,Small","No,Large,Yes,20 min,Yes,Good,Small",1,15755,2021-10-24 16:45:19,3642
5bff110c1ad00400016981d1,ma_choice_v2_pilot2,"",65,0,-1,-1,"Climate of Area,Proximity to Waterfront/Beaches,Age of Building,Noise Pollution,Number of Bedrooms,Size of Garage,Central AC","Very Bad,70 min,Medium,Moderate,4 bdrm,Medium,No","Very Good,50 min,Old,Moderate,3 bdrm,Small,No",1,19786,2021-10-24 16:45:30,3643
5bff110c1ad00400016981d1,ma_choice_v2_pilot2,"",66,0,-1,-1,"Age of Building,Hardwood Floors,Proximity to Cafes/Restaurants,Amount of Natural Light,Proximity to Waterfront/Beaches,Climate of Area,Central AC","New,Yes,5 min,Very Little,10 min,Very Bad,Yes","New,Yes,15 min,A Little,10 min,Very Good,Yes",1,15609,2021-10-24 16:45:46,3644
5be9fd84271bf10001525264,ma_choice_v2_pilot2,"",11,0,-1,-1,"Noise Pollution,Number of Bedrooms,Climate of Area,Age of Building,Hardwood Floors,Proximity to Parks,Reputation of Closest School","Very High,2 bdrm,Very Good,New,No,5 min,Bad","Very Low,4 bdrm,Good,Medium,Yes,25 min,Very Good",1,11141,2021-10-24 16:45:52,3645
5be9fd84271bf10001525264,ma_choice_v2_pilot2,"",12,0,-1,-1,"Proximity to Parks,Noise Pollution,Age of Building,Proximity to Cafes/Restaurants,Central AC,Freshly Painted Exterior,Number of Bedrooms","25 min,Moderate,Old,25 min,No,No,1 bdrm","10 min,Very High,New,25 min,No,No,4 bdrm",1,10936,2021-10-24 16:45:52,3646
5be9fd84271bf10001525264,ma_choice_v2_pilot2,"",13,0,-1,-1,"Age of Building,Size of Home,Size of Yard,Amount of Natural Light,Hardwood Floors,Proximity to Waterfront/Beaches,Proximity to Cafes/Restaurants","Medium,562 square feet,Very Large,A Little,No,90 min,5 min","Old,1071 square feet,Very Large,Very Little,No,10 min,20 min",1,17197,2021-10-24 16:46:01,3647
5bff110c1ad00400016981d1,ma_choice_v2_pilot2,"",67,0,-1,-1,"Reputation of Closest School,Amount of Natural Light,Washer/Dryer,Fireplace,Climate of Area,Freshly Painted Exterior,Age of Building","Good,A Moderate Amount,No,No,Moderate,Yes,New","Very Good,A Moderate Amount,Yes,Yes,Good,No,Medium",1,30989,2021-10-24 16:46:18,3648
5be9fd84271bf10001525264,ma_choice_v2_pilot2,"",14,0,-1,-1,"Fireplace,Noise Pollution,Number of Bedrooms,Freshly Painted Exterior,Proximity to Cafes/Restaurants,Proximity to Waterfront/Beaches,Proximity to Parks","Yes,Very High,3 bdrm,No,5 min,90 min,5 min","Yes,Moderate,2 bdrm,Yes,15 min,70 min,5 min",0,11618,2021-10-24 16:46:19,3649
5be9fd84271bf10001525264,ma_choice_v2_pilot2,"",15,0,-1,-1,"Climate of Area,Hardwood Floors,Washer/Dryer,Size of Home,Proximity to Parks,Noise Pollution,Fireplace","Bad,No,No,713 square feet,10 min,High,Yes","Very Bad,Yes,Yes,1019 square feet,10 min,High,Yes",1,11569,2021-10-24 16:46:27,3650
5bff110c1ad00400016981d1,ma_choice_v2_pilot2,"",68,0,-1,-1,"Size of Garage,Central AC,Climate of Area,Noise Pollution,Proximity to Cafes/Restaurants,Size of Home,Fireplace","Large,Yes,Very Good,Low,25 min,425 square feet,No","Small,No,Good,High,25 min,1535 square feet,No",0,12661,2021-10-24 16:46:32,3651
5be9fd84271bf10001525264,ma_choice_v2_pilot2,"",16,0,-1,-1,"Number of Bedrooms,Size of Yard,Size of Garage,Freshly Painted Exterior,Amount of Natural Light,Noise Pollution,Fireplace","3 bdrm,Medium,Medium,Yes,A Moderate Amount,Very High,Yes","3 bdrm,Very Large,None,Yes,A Moderate Amount,Low,No",1,20333,2021-10-24 16:46:48,3652
5bff110c1ad00400016981d1,ma_choice_v2_pilot2,"",69,0,-1,-1,"Size of Home,Number of Bedrooms,Hardwood Floors,Fireplace,Reputation of Closest School,Proximity to Parks,Size of Yard","788 square feet,3 bdrm,No,No,Very Bad,20 min,None","606 square feet,1 bdrm,Yes,Yes,Good,25 min,Very Large",1,16070,2021-10-24 16:46:49,3653
5be9fd84271bf10001525264,ma_choice_v2_pilot2,"",17,0,-1,-1,"Age of Building,Proximity to Cafes/Restaurants,Hardwood Floors,Freshly Painted Exterior,Size of Home,Proximity to Parks,Washer/Dryer","New,25 min,Yes,Yes,1565 square feet,20 min,No","New,20 min,Yes,No,1255 square feet,20 min,No",0,12802,2021-10-24 16:47:02,3654
5be9fd84271bf10001525264,ma_choice_v2_pilot2,"",18,0,-1,-1,"Hardwood Floors,Proximity to Waterfront/Beaches,Fireplace,Climate of Area,Size of Yard,Freshly Painted Exterior,Amount of Natural Light","Yes,50 min,Yes,Very Good,None,No,A Little","Yes,10 min,Yes,Very Bad,Small,Yes,A Moderate Amount",1,11376,2021-10-24 16:47:14,3655
5be9fd84271bf10001525264,ma_choice_v2_pilot2,"",19,0,-1,-1,"Central AC,Size of Home,Size of Yard,Fireplace,Freshly Painted Exterior,Number of Bedrooms,Washer/Dryer","Yes,1383 square feet,Large,No,Yes,1 bdrm,Yes","No,1489 square feet,Medium,No,Yes,3 bdrm,No",1,13693,2021-10-24 16:47:34,3656
5be9fd84271bf10001525264,ma_choice_v2_pilot2,"",20,0,-1,-1,"Reputation of Closest School,Proximity to Cafes/Restaurants,Proximity to Parks,Size of Garage,Size of Home,Climate of Area,Washer/Dryer","Moderate,20 min,10 min,None,557 square feet,Moderate,Yes","Good,5 min,25 min,Small,968 square feet,Bad,No",1,18350,2021-10-24 16:47:48,3657
5bff110c1ad00400016981d1,ma_choice_v2_pilot2,"",70,0,-1,-1,"Number of Bedrooms,Hardwood Floors,Proximity to Cafes/Restaurants,Freshly Painted Exterior,Proximity to Waterfront/Beaches,Fireplace,Noise Pollution","1 bdrm,No,25 min,Yes,10 min,Yes,Very High","1 bdrm,No,5 min,No,30 min,No,Low",1,60452,2021-10-24 16:47:51,3658
5be9fd84271bf10001525264,ma_choice_v2_pilot2,"",21,0,-1,-1,"Freshly Painted Exterior,Number of Bedrooms,Proximity to Parks,Reputation of Closest School,Washer/Dryer,Size of Garage,Size of Home","Yes,2 bdrm,20 min,Good,No,Medium,936 square feet","No,3 bdrm,15 min,Moderate,No,Medium,1749 square feet",1,8755,2021-10-24 16:47:57,3659
5bff110c1ad00400016981d1,ma_choice_v2_pilot2,"",71,0,-1,-1,"Proximity to Parks,Noise Pollution,Proximity to Waterfront/Beaches,Hardwood Floors,Number of Bedrooms,Proximity to Cafes/Restaurants,Size of Yard","10 min,Very Low,30 min,No,4 bdrm,10 min,None","5 min,Moderate,10 min,Yes,1 bdrm,10 min,Small",1,7385,2021-10-24 16:47:59,3660
5bff110c1ad00400016981d1,ma_choice_v2_pilot2,"",72,0,-1,-1,"Fireplace,Size of Home,Proximity to Cafes/Restaurants,Climate of Area,Freshly Painted Exterior,Noise Pollution,Size of Yard","No,1847 square feet,25 min,Bad,No,High,Large","No,1907 square feet,20 min,Good,Yes,Moderate,Large",1,13652,2021-10-24 16:48:14,3661
5d8d8f8a7df28500133337d1,ma_choice_v2_pilot2,"",0,1,-1,-1,"Fireplace,Hardwood Floors,Amount of Natural Light,Noise Pollution,Climate of Area,Proximity to Cafes/Restaurants,Size of Yard","No,No,A Little,Very High,Bad,10 min,Large","Yes,No,A Moderate Amount,Moderate,Moderate,20 min,Small",1,20055,2021-10-24 16:48:16,3662
5be9fd84271bf10001525264,ma_choice_v2_pilot2,"",22,0,-1,-1,"Freshly Painted Exterior,Hardwood Floors,Proximity to Parks,Fireplace,Reputation of Closest School,Washer/Dryer,Central AC","Yes,Yes,20 min,Yes,Very Bad,Yes,No","No,Yes,15 min,Yes,Good,No,Yes",1,25615,2021-10-24 16:48:24,3663
5be9fd84271bf10001525264,ma_choice_v2_pilot2,"",23,0,-1,-1,"Number of Bedrooms,Climate of Area,Proximity to Waterfront/Beaches,Proximity to Parks,Central AC,Size of Yard,Amount of Natural Light","3 bdrm,Very Bad,30 min,15 min,Yes,Medium,A Lot","4 bdrm,Very Good,90 min,15 min,No,Large,A Lot",0,8880,2021-10-24 16:48:34,3664
5d8d8f8a7df28500133337d1,ma_choice_v2_pilot2,"",1,1,-1,-1,"Noise Pollution,Size of Yard,Age of Building,Washer/Dryer,Climate of Area,Size of Garage,Freshly Painted Exterior","Very High,None,New,Yes,Very Bad,Small,No","High,Very Large,Old,No,Very Bad,Large,No",1,26930,2021-10-24 16:48:44,3665
5be9fd84271bf10001525264,ma_choice_v2_pilot2,"",24,0,-1,-1,"Proximity to Parks,Reputation of Closest School,Freshly Painted Exterior,Hardwood Floors,Size of Home,Climate of Area,Size of Garage","10 min,Bad,No,Yes,1307 square feet,Very Bad,Very Large","15 min,Good,Yes,Yes,852 square feet,Very Bad,Medium",0,9607,2021-10-24 16:48:45,3666
5d8d8f8a7df28500133337d1,ma_choice_v2_pilot2,"",2,1,-1,-1,"Size of Home,Washer/Dryer,Size of Yard,Central AC,Reputation of Closest School,Age of Building,Fireplace","916 square feet,No,Medium,No,Bad,New,Yes","1519 square feet,Yes,Large,Yes,Very Bad,New,No",1,16618,2021-10-24 16:49:01,3667
5bff110c1ad00400016981d1,ma_choice_v2_pilot2,"",73,0,-1,-1,"Number of Bedrooms,Central AC,Proximity to Cafes/Restaurants,Freshly Painted Exterior,Fireplace,Proximity to Parks,Climate of Area","1 bdrm,No,10 min,Yes,Yes,25 min,Moderate","1 bdrm,No,10 min,Yes,Yes,10 min,Bad",0,54937,2021-10-24 16:49:10,3668
5be9fd84271bf10001525264,ma_choice_v2_pilot2,"",25,0,-1,-1,"Proximity to Waterfront/Beaches,Proximity to Parks,Freshly Painted Exterior,Size of Home,Reputation of Closest School,Number of Bedrooms,Fireplace","50 min,10 min,No,1567 square feet,Very Good,1 bdrm,No","90 min,20 min,Yes,623 square feet,Good,2 bdrm,No",0,28583,2021-10-24 16:49:14,3669
5bff110c1ad00400016981d1,ma_choice_v2_pilot2,"",74,0,-1,-1,"Hardwood Floors,Fireplace,Proximity to Waterfront/Beaches,Washer/Dryer,Proximity to Cafes/Restaurants,Age of Building,Noise Pollution","No,No,30 min,No,20 min,Old,Very High","Yes,Yes,50 min,Yes,5 min,Old,Very Low",1,7796,2021-10-24 16:49:18,3670
5d8d8f8a7df28500133337d1,ma_choice_v2_pilot2,"",3,1,-1,-1,"Washer/Dryer,Size of Yard,Noise Pollution,Size of Home,Central AC,Proximity to Parks,Number of Bedrooms","Yes,Small,Very High,1086 square feet,Yes,25 min,1 bdrm","No,Small,High,1607 square feet,Yes,25 min,2 bdrm",1,23315,2021-10-24 16:49:26,3671
5be9fd84271bf10001525264,ma_choice_v2_pilot2,"",26,0,-1,-1,"Proximity to Waterfront/Beaches,Washer/Dryer,Freshly Painted Exterior,Reputation of Closest School,Age of Building,Climate of Area,Size of Yard","10 min,No,No,Good,Medium,Bad,Large","50 min,Yes,Yes,Good,Medium,Very Bad,Medium",1,20191,2021-10-24 16:49:34,3672
5d8d8f8a7df28500133337d1,ma_choice_v2_pilot2,"",4,1,-1,-1,"Proximity to Waterfront/Beaches,Washer/Dryer,Hardwood Floors,Freshly Painted Exterior,Fireplace,Size of Yard,Climate of Area","70 min,Yes,No,No,Yes,Medium,Bad","90 min,Yes,Yes,No,Yes,Large,Good",1,11131,2021-10-24 16:49:38,3673
5be9fd84271bf10001525264,ma_choice_v2_pilot2,"",27,0,-1,-1,"Proximity to Cafes/Restaurants,Number of Bedrooms,Reputation of Closest School,Fireplace,Washer/Dryer,Proximity to Waterfront/Beaches,Central AC","20 min,1 bdrm,Very Bad,No,No,70 min,No","15 min,4 bdrm,Moderate,Yes,No,90 min,No",1,11818,2021-10-24 16:49:47,3674
5d8d8f8a7df28500133337d1,ma_choice_v2_pilot2,"",5,1,-1,-1,"Size of Garage,Fireplace,Size of Home,Amount of Natural Light,Hardwood Floors,Number of Bedrooms,Noise Pollution","Very Large,No,740 square feet,Very Little,No,1 bdrm,Moderate","Small,No,860 square feet,A Lot,Yes,4 bdrm,Low",1,15721,2021-10-24 16:49:55,3675
5be9fd84271bf10001525264,ma_choice_v2_pilot2,"",28,0,-1,-1,"Noise Pollution,Central AC,Washer/Dryer,Age of Building,Freshly Painted Exterior,Fireplace,Number of Bedrooms","Low,Yes,No,Medium,No,Yes,1 bdrm","Low,Yes,Yes,Medium,No,No,3 bdrm",1,9816,2021-10-24 16:49:57,3676
5be9fd84271bf10001525264,ma_choice_v2_pilot2,"",29,0,-1,-1,"Climate of Area,Proximity to Waterfront/Beaches,Size of Garage,Central AC,Size of Yard,Age of Building,Size of Home","Moderate,90 min,Very Large,Yes,Very Large,Old,1717 square feet","Very Good,50 min,Very Large,Yes,Medium,New,429 square feet",0,14462,2021-10-24 16:50:13,3677
5d8d8f8a7df28500133337d1,ma_choice_v2_pilot2,"",6,1,-1,-1,"Proximity to Parks,Climate of Area,Size of Yard,Proximity to Cafes/Restaurants,Number of Bedrooms,Freshly Painted Exterior,Fireplace","5 min,Good,Very Large,20 min,2 bdrm,No,No","20 min,Moderate,Medium,5 min,1 bdrm,No,Yes",0,39468,2021-10-24 16:50:35,3678
5be9fd84271bf10001525264,ma_choice_v2_pilot2,"",30,0,-1,-1,"Fireplace,Proximity to Parks,Central AC,Proximity to Waterfront/Beaches,Noise Pollution,Age of Building,Climate of Area","Yes,5 min,No,90 min,High,New,Very Good","No,15 min,Yes,90 min,Very High,Medium,Bad",1,31834,2021-10-24 16:50:46,3679
5be9fd84271bf10001525264,ma_choice_v2_pilot2,"",31,0,-1,-1,"Noise Pollution,Fireplace,Climate of Area,Reputation of Closest School,Number of Bedrooms,Proximity to Cafes/Restaurants,Size of Yard","High,Yes,Very Bad,Good,3 bdrm,20 min,Small","Very Low,No,Bad,Good,4 bdrm,5 min,Small",1,9127,2021-10-24 16:50:56,3680
5be9fd84271bf10001525264,ma_choice_v2_pilot2,"",32,0,-1,-1,"Size of Garage,Climate of Area,Washer/Dryer,Reputation of Closest School,Size of Yard,Proximity to Waterfront/Beaches,Central AC","Medium,Moderate,No,Bad,Small,10 min,No","None,Moderate,Yes,Very Bad,Small,50 min,Yes",0,13525,2021-10-24 16:51:10,3681
5d8d8f8a7df28500133337d1,ma_choice_v2_pilot2,"",7,1,-1,-1,"Size of Home,Freshly Painted Exterior,Proximity to Cafes/Restaurants,Age of Building,Climate of Area,Amount of Natural Light,Fireplace","1083 square feet,Yes,10 min,Medium,Moderate,A Moderate Amount,Yes","918 square feet,Yes,15 min,New,Very Good,A Lot,Yes",1,36182,2021-10-24 16:51:12,3682
5be9fd84271bf10001525264,ma_choice_v2_pilot2,"",33,0,-1,-1,"Noise Pollution,Proximity to Waterfront/Beaches,Size of Garage,Reputation of Closest School,Size of Yard,Age of Building,Amount of Natural Light","Very High,50 min,Small,Very Bad,Medium,Old,A Lot","Very High,70 min,Small,Very Good,None,New,A Lot",0,13212,2021-10-24 16:51:25,3683
5d8d8f8a7df28500133337d1,ma_choice_v2_pilot2,"",8,1,-1,-1,"Washer/Dryer,Noise Pollution,Age of Building,Hardwood Floors,Size of Home,Central AC,Freshly Painted Exterior","Yes,Moderate,New,Yes,1246 square feet,No,No","No,Low,New,Yes,1729 square feet,No,Yes",1,15557,2021-10-24 16:51:29,3684
5be9fd84271bf10001525264,ma_choice_v2_pilot2,"",34,0,-1,-1,"Central AC,Hardwood Floors,Freshly Painted Exterior,Proximity to Parks,Noise Pollution,Size of Home,Reputation of Closest School","Yes,Yes,No,15 min,Very High,1017 square feet,Bad","No,No,No,20 min,Low,656 square feet,Good",0,9367,2021-10-24 16:51:35,3685
5be9fd84271bf10001525264,ma_choice_v2_pilot2,"",35,0,-1,-1,"Age of Building,Proximity to Waterfront/Beaches,Size of Home,Central AC,Reputation of Closest School,Washer/Dryer,Fireplace","Medium,90 min,999 square feet,No,Good,No,No","Medium,70 min,1624 square feet,No,Very Good,No,Yes",1,8144,2021-10-24 16:51:44,3686
5d8d8f8a7df28500133337d1,ma_choice_v2_pilot2,"",9,1,-1,-1,"Proximity to Parks,Size of Garage,Noise Pollution,Freshly Painted Exterior,Size of Home,Reputation of Closest School,Size of Yard","10 min,Very Large,Very Low,No,566 square feet,Very Bad,None","25 min,None,Moderate,No,1659 square feet,Bad,None",1,33257,2021-10-24 16:52:03,3687
5be9fd84271bf10001525264,ma_choice_v2_pilot2,"",36,0,-1,-1,"Amount of Natural Light,Freshly Painted Exterior,Washer/Dryer,Fireplace,Central AC,Age of Building,Proximity to Parks","Very Little,Yes,Yes,No,Yes,Old,5 min","A Moderate Amount,No,Yes,No,No,New,5 min",0,22238,2021-10-24 16:52:07,3688
5be9fd84271bf10001525264,ma_choice_v2_pilot2,"",37,0,-1,-1,"Proximity to Waterfront/Beaches,Noise Pollution,Size of Home,Reputation of Closest School,Central AC,Hardwood Floors,Amount of Natural Light","30 min,Very High,985 square feet,Bad,No,No,Very Little","70 min,Very Low,1337 square feet,Good,No,Yes,A Moderate Amount",1,10021,2021-10-24 16:52:18,3689
5be9fd84271bf10001525264,ma_choice_v2_pilot2,"",38,0,-1,-1,"Size of Home,Freshly Painted Exterior,Proximity to Waterfront/Beaches,Number of Bedrooms,Noise Pollution,Hardwood Floors,Proximity to Parks","1239 square feet,Yes,30 min,1 bdrm,Low,Yes,25 min","968 square feet,Yes,30 min,3 bdrm,Very High,Yes,15 min",0,21159,2021-10-24 16:52:41,3690
5d8d8f8a7df28500133337d1,ma_choice_v2_pilot2,"",0,0,-1,-1,"Proximity to Parks,Age of Building,Reputation of Closest School,Noise Pollution,Size of Garage,Size of Home,Climate of Area","5 min,Medium,Very Bad,Moderate,None,1096 square feet,Good","20 min,Medium,Very Good,Very Low,Medium,1135 square feet,Very Good",1,17003,2021-10-24 16:52:50,3691
5be9fd84271bf10001525264,ma_choice_v2_pilot2,"",39,0,-1,-1,"Washer/Dryer,Freshly Painted Exterior,Reputation of Closest School,Proximity to Parks,Number of Bedrooms,Central AC,Proximity to Cafes/Restaurants","No,No,Moderate,15 min,2 bdrm,No,5 min","Yes,No,Bad,20 min,1 bdrm,No,25 min",0,9324,2021-10-24 16:52:51,3692
5be9fd84271bf10001525264,ma_choice_v2_pilot2,"",40,0,-1,-1,"Size of Yard,Proximity to Cafes/Restaurants,Noise Pollution,Climate of Area,Freshly Painted Exterior,Amount of Natural Light,Central AC","Large,20 min,High,Good,No,A Moderate Amount,Yes","Small,15 min,Moderate,Very Good,Yes,Very Little,Yes",0,11763,2021-10-24 16:53:04,3693
5d8d8f8a7df28500133337d1,ma_choice_v2_pilot2,"",1,0,-1,-1,"Age of Building,Washer/Dryer,Size of Home,Number of Bedrooms,Size of Yard,Hardwood Floors,Freshly Painted Exterior","Old,Yes,1136 square feet,3 bdrm,Large,Yes,No","Old,Yes,1548 square feet,4 bdrm,Very Large,No,No",0,12878,2021-10-24 16:53:04,3694
5be9fd84271bf10001525264,ma_choice_v2_pilot2,"",41,0,-1,-1,"Size of Garage,Number of Bedrooms,Size of Home,Fireplace,Hardwood Floors,Age of Building,Proximity to Waterfront/Beaches","Small,2 bdrm,1056 square feet,Yes,Yes,Old,70 min","None,4 bdrm,546 square feet,Yes,No,Medium,70 min",0,14353,2021-10-24 16:53:19,3695
5be9fd84271bf10001525264,ma_choice_v2_pilot2,"",42,0,-1,-1,"Noise Pollution,Freshly Painted Exterior,Reputation of Closest School,Climate of Area,Central AC,Washer/Dryer,Proximity to Cafes/Restaurants","Very Low,No,Very Good,Very Good,Yes,Yes,10 min","Low,No,Bad,Moderate,No,No,25 min",0,8815,2021-10-24 16:53:29,3696
5d8d8f8a7df28500133337d1,ma_choice_v2_pilot2,"",2,0,-1,-1,"Central AC,Amount of Natural Light,Size of Yard,Proximity to Parks,Age of Building,Size of Home,Fireplace","Yes,A Moderate Amount,Small,10 min,New,567 square feet,No","No,A Lot,None,25 min,Medium,1061 square feet,No",0,24515,2021-10-24 16:53:29,3697
5be9fd84271bf10001525264,ma_choice_v2_pilot2,"",43,0,-1,-1,"Proximity to Parks,Proximity to Cafes/Restaurants,Freshly Painted Exterior,Size of Yard,Size of Home,Proximity to Waterfront/Beaches,Number of Bedrooms","20 min,5 min,Yes,Large,1233 square feet,70 min,1 bdrm","20 min,15 min,Yes,Large,1235 square feet,90 min,4 bdrm",1,9899,2021-10-24 16:53:40,3698
5d8d8f8a7df28500133337d1,ma_choice_v2_pilot2,"",3,0,-1,-1,"Climate of Area,Proximity to Cafes/Restaurants,Size of Yard,Size of Home,Central AC,Fireplace,Proximity to Waterfront/Beaches","Very Good,20 min,Very Large,1933 square feet,No,Yes,10 min","Bad,15 min,None,1860 square feet,No,No,70 min",0,10679,2021-10-24 16:53:41,3699
5d8d8f8a7df28500133337d1,ma_choice_v2_pilot2,"",4,0,-1,-1,"Proximity to Parks,Number of Bedrooms,Washer/Dryer,Freshly Painted Exterior,Proximity to Waterfront/Beaches,Noise Pollution,Size of Garage","25 min,1 bdrm,Yes,Yes,30 min,Moderate,Large","15 min,1 bdrm,Yes,Yes,70 min,High,None",0,10458,2021-10-24 16:53:53,3700
5be9fd84271bf10001525264,ma_choice_v2_pilot2,"",44,0,-1,-1,"Reputation of Closest School,Proximity to Parks,Proximity to Cafes/Restaurants,Hardwood Floors,Number of Bedrooms,Size of Garage,Proximity to Waterfront/Beaches","Good,10 min,20 min,Yes,2 bdrm,Medium,90 min","Good,25 min,20 min,No,2 bdrm,Medium,10 min",0,13708,2021-10-24 16:53:54,3701
5d8d8f8a7df28500133337d1,ma_choice_v2_pilot2,"",5,0,-1,-1,"Proximity to Waterfront/Beaches,Central AC,Proximity to Parks,Hardwood Floors,Proximity to Cafes/Restaurants,Number of Bedrooms,Noise Pollution","90 min,Yes,25 min,Yes,5 min,4 bdrm,Very Low","30 min,Yes,5 min,No,25 min,2 bdrm,Very High",0,13253,2021-10-24 16:54:07,3702
5be9fd84271bf10001525264,ma_choice_v2_pilot2,"",45,0,-1,-1,"Freshly Painted Exterior,Hardwood Floors,Washer/Dryer,Size of Yard,Number of Bedrooms,Size of Garage,Size of Home","No,Yes,Yes,Small,1 bdrm,Large,551 square feet","No,No,No,None,2 bdrm,Small,1853 square feet",1,16474,2021-10-24 16:54:12,3703
5d8d8f8a7df28500133337d1,ma_choice_v2_pilot2,"",6,0,-1,-1,"Washer/Dryer,Size of Home,Proximity to Parks,Size of Garage,Reputation of Closest School,Fireplace,Freshly Painted Exterior","Yes,497 square feet,15 min,Medium,Bad,No,No","No,633 square feet,20 min,Medium,Good,Yes,No",0,12776,2021-10-24 16:54:21,3704
5be9fd84271bf10001525264,ma_choice_v2_pilot2,"",46,0,-1,-1,"Amount of Natural Light,Hardwood Floors,Climate of Area,Proximity to Parks,Washer/Dryer,Size of Yard,Size of Home","Very Little,No,Very Good,10 min,No,Small,923 square feet","A Little,No,Moderate,20 min,Yes,None,1707 square feet",1,10191,2021-10-24 16:54:23,3705
5be9fd84271bf10001525264,ma_choice_v2_pilot2,"",47,0,-1,-1,"Number of Bedrooms,Noise Pollution,Reputation of Closest School,Washer/Dryer,Central AC,Proximity to Cafes/Restaurants,Proximity to Parks","1 bdrm,High,Very Bad,No,Yes,15 min,20 min","3 bdrm,Low,Very Bad,Yes,Yes,20 min,25 min",1,8425,2021-10-24 16:54:33,3706
5d8d8f8a7df28500133337d1,ma_choice_v2_pilot2,"",7,0,-1,-1,"Proximity to Parks,Size of Home,Age of Building,Washer/Dryer,Amount of Natural Light,Freshly Painted Exterior,Proximity to Cafes/Restaurants","15 min,1994 square feet,Medium,No,Very Little,Yes,25 min","20 min,1472 square feet,Old,No,A Little,Yes,20 min",1,16329,2021-10-24 16:54:38,3707
5be9fd84271bf10001525264,ma_choice_v2_pilot2,"",48,0,-1,-1,"Proximity to Parks,Size of Garage,Washer/Dryer,Size of Yard,Age of Building,Hardwood Floors,Noise Pollution","25 min,None,No,None,Old,Yes,High","25 min,Large,Yes,Medium,Old,Yes,Low",1,9811,2021-10-24 16:54:43,3708
5d8d8f8a7df28500133337d1,ma_choice_v2_pilot2,"",8,0,-1,-1,"Amount of Natural Light,Noise Pollution,Reputation of Closest School,Proximity to Parks,Washer/Dryer,Size of Garage,Proximity to Waterfront/Beaches","A Moderate Amount,Moderate,Moderate,5 min,Yes,Medium,50 min","Very Little,Very Low,Bad,10 min,Yes,Medium,70 min",0,7674,2021-10-24 16:54:47,3709
5be9fd84271bf10001525264,ma_choice_v2_pilot2,"",49,0,-1,-1,"Freshly Painted Exterior,Proximity to Waterfront/Beaches,Number of Bedrooms,Washer/Dryer,Size of Home,Noise Pollution,Size of Garage","Yes,30 min,3 bdrm,Yes,436 square feet,Very Low,Medium","No,10 min,3 bdrm,No,1466 square feet,Very High,Very Large",1,9036,2021-10-24 16:54:53,3710
5d8d8f8a7df28500133337d1,ma_choice_v2_pilot2,"",9,0,-1,-1,"Noise Pollution,Number of Bedrooms,Reputation of Closest School,Proximity to Waterfront/Beaches,Climate of Area,Fireplace,Freshly Painted Exterior","High,4 bdrm,Good,90 min,Moderate,No,Yes","Moderate,2 bdrm,Bad,10 min,Good,Yes,No",1,14608,2021-10-24 16:55:02,3711
5be9fd84271bf10001525264,ma_choice_v2_pilot2,"",50,0,-1,-1,"Central AC,Number of Bedrooms,Proximity to Cafes/Restaurants,Proximity to Parks,Size of Garage,Fireplace,Age of Building","No,2 bdrm,20 min,10 min,Very Large,Yes,New","Yes,2 bdrm,10 min,25 min,Large,Yes,Old",1,11046,2021-10-24 16:55:05,3712
5be9fd84271bf10001525264,ma_choice_v2_pilot2,"",51,0,-1,-1,"Number of Bedrooms,Central AC,Proximity to Waterfront/Beaches,Noise Pollution,Size of Garage,Amount of Natural Light,Freshly Painted Exterior","3 bdrm,Yes,90 min,Low,Small,A Lot,Yes","3 bdrm,No,90 min,Very Low,None,A Little,No",0,8581,2021-10-24 16:55:15,3713
5d8d8f8a7df28500133337d1,ma_choice_v2_pilot2,"",10,0,-1,-1,"Fireplace,Hardwood Floors,Amount of Natural Light,Washer/Dryer,Reputation of Closest School,Size of Garage,Proximity to Cafes/Restaurants","No,Yes,A Lot,No,Very Bad,Large,5 min","No,No,A Little,No,Very Bad,Small,25 min",0,12498,2021-10-24 16:55:16,3714
5d8d8f8a7df28500133337d1,ma_choice_v2_pilot2,"",11,0,-1,-1,"Proximity to Parks,Age of Building,Central AC,Proximity to Waterfront/Beaches,Noise Pollution,Reputation of Closest School,Climate of Area","15 min,New,Yes,50 min,Moderate,Bad,Very Bad","5 min,Old,Yes,10 min,High,Very Bad,Moderate",1,16602,2021-10-24 16:55:33,3715
5be9fd84271bf10001525264,ma_choice_v2_pilot2,"",52,0,-1,-1,"Proximity to Waterfront/Beaches,Hardwood Floors,Noise Pollution,Freshly Painted Exterior,Reputation of Closest School,Climate of Area,Age of Building","10 min,Yes,High,Yes,Very Bad,Bad,Medium","90 min,Yes,Very High,No,Moderate,Very Good,New",0,27018,2021-10-24 16:55:43,3716
5d8d8f8a7df28500133337d1,ma_choice_v2_pilot2,"",12,0,-1,-1,"Reputation of Closest School,Fireplace,Size of Garage,Proximity to Cafes/Restaurants,Size of Home,Noise Pollution,Size of Yard","Moderate,Yes,Very Large,20 min,1468 square feet,Moderate,Medium","Very Good,No,Large,15 min,562 square feet,Moderate,Medium",0,14549,2021-10-24 16:55:49,3717
5be9fd84271bf10001525264,ma_choice_v2_pilot2,"",53,0,-1,-1,"Age of Building,Central AC,Reputation of Closest School,Size of Garage,Size of Home,Proximity to Waterfront/Beaches,Proximity to Cafes/Restaurants","Medium,Yes,Very Good,Small,1150 square feet,50 min,20 min","Old,No,Very Good,Small,959 square feet,30 min,5 min",0,7942,2021-10-24 16:55:52,3718
5be9fd84271bf10001525264,ma_choice_v2_pilot2,"",54,0,-1,-1,"Freshly Painted Exterior,Washer/Dryer,Central AC,Reputation of Closest School,Fireplace,Proximity to Parks,Hardwood Floors","No,Yes,Yes,Moderate,No,10 min,Yes","No,Yes,Yes,Moderate,No,25 min,No",0,8377,2021-10-24 16:56:01,3719
5d8d8f8a7df28500133337d1,ma_choice_v2_pilot2,"",13,0,-1,-1,"Size of Home,Hardwood Floors,Washer/Dryer,Age of Building,Noise Pollution,Central AC,Reputation of Closest School","749 square feet,No,Yes,New,Moderate,Yes,Very Good","1766 square feet,No,No,Old,Very Low,Yes,Very Bad",0,12219,2021-10-24 16:56:02,3720
5be9fd84271bf10001525264,ma_choice_v2_pilot2,"",55,0,-1,-1,"Size of Yard,Noise Pollution,Size of Garage,Reputation of Closest School,Proximity to Parks,Central AC,Number of Bedrooms","None,Very Low,Very Large,Very Good,25 min,Yes,4 bdrm","Very Large,Very Low,None,Very Good,25 min,Yes,3 bdrm",0,15440,2021-10-24 16:56:18,3721
5d8d8f8a7df28500133337d1,ma_choice_v2_pilot2,"",14,0,-1,-1,"Size of Garage,Proximity to Waterfront/Beaches,Reputation of Closest School,Amount of Natural Light,Proximity to Cafes/Restaurants,Washer/Dryer,Age of Building","Large,50 min,Very Bad,A Little,10 min,No,Medium","Medium,70 min,Very Bad,A Little,15 min,No,New",0,21748,2021-10-24 16:56:25,3722
5be9fd84271bf10001525264,ma_choice_v2_pilot2,"",56,0,-1,-1,"Proximity to Cafes/Restaurants,Size of Home,Central AC,Proximity to Waterfront/Beaches,Proximity to Parks,Noise Pollution,Age of Building","15 min,1089 square feet,No,50 min,10 min,Low,Old","10 min,885 square feet,Yes,50 min,15 min,Very Low,New",0,13426,2021-10-24 16:56:32,3723
5d8d8f8a7df28500133337d1,ma_choice_v2_pilot2,"",15,0,-1,-1,"Climate of Area,Reputation of Closest School,Hardwood Floors,Amount of Natural Light,Central AC,Size of Yard,Proximity to Parks","Bad,Very Good,No,A Moderate Amount,Yes,Very Large,25 min","Bad,Bad,No,Very Little,No,Very Large,20 min",0,13211,2021-10-24 16:56:39,3724
5be9fd84271bf10001525264,ma_choice_v2_pilot2,"",57,0,-1,-1,"Reputation of Closest School,Size of Home,Fireplace,Freshly Painted Exterior,Climate of Area,Noise Pollution,Proximity to Cafes/Restaurants","Good,1143 square feet,Yes,No,Very Good,Low,15 min","Very Bad,975 square feet,Yes,Yes,Bad,High,10 min",0,9304,2021-10-24 16:56:43,3725
5d8d8f8a7df28500133337d1,ma_choice_v2_pilot2,"",16,0,-1,-1,"Proximity to Waterfront/Beaches,Freshly Painted Exterior,Number of Bedrooms,Size of Home,Amount of Natural Light,Climate of Area,Reputation of Closest School","50 min,No,4 bdrm,588 square feet,A Little,Moderate,Moderate","90 min,No,3 bdrm,1673 square feet,A Moderate Amount,Very Good,Good",1,10366,2021-10-24 16:56:51,3726
5be9fd84271bf10001525264,ma_choice_v2_pilot2,"",58,0,-1,-1,"Proximity to Parks,Climate of Area,Proximity to Waterfront/Beaches,Size of Garage,Washer/Dryer,Size of Home,Proximity to Cafes/Restaurants","5 min,Good,30 min,Large,No,684 square feet,25 min","5 min,Good,30 min,Very Large,No,658 square feet,5 min",1,16933,2021-10-24 16:57:01,3727
5d8d8f8a7df28500133337d1,ma_choice_v2_pilot2,"",17,0,-1,-1,"Size of Home,Number of Bedrooms,Noise Pollution,Freshly Painted Exterior,Reputation of Closest School,Proximity to Parks,Amount of Natural Light","655 square feet,2 bdrm,High,No,Good,20 min,A Moderate Amount","1939 square feet,2 bdrm,Very Low,No,Bad,25 min,A Lot",1,14998,2021-10-24 16:57:07,3728
5be9fd84271bf10001525264,ma_choice_v2_pilot2,"",59,0,-1,-1,"Size of Home,Size of Garage,Proximity to Cafes/Restaurants,Proximity to Waterfront/Beaches,Central AC,Amount of Natural Light,Noise Pollution","619 square feet,Medium,25 min,90 min,No,A Little,Very Low","983 square feet,Very Large,5 min,10 min,No,A Lot,Moderate",1,8755,2021-10-24 16:57:10,3729
5be9fd84271bf10001525264,ma_choice_v2_pilot2,"",60,0,-1,-1,"Fireplace,Number of Bedrooms,Freshly Painted Exterior,Washer/Dryer,Central AC,Proximity to Cafes/Restaurants,Reputation of Closest School","Yes,3 bdrm,Yes,Yes,Yes,5 min,Very Bad","No,2 bdrm,No,Yes,No,10 min,Very Bad",0,8900,2021-10-24 16:57:20,3730
5d8d8f8a7df28500133337d1,ma_choice_v2_pilot2,"",18,0,-1,-1,"Hardwood Floors,Age of Building,Proximity to Parks,Size of Garage,Fireplace,Climate of Area,Size of Yard","Yes,Medium,15 min,Large,Yes,Bad,Medium","Yes,New,20 min,Very Large,No,Bad,Very Large",0,14250,2021-10-24 16:57:22,3731
5be9fd84271bf10001525264,ma_choice_v2_pilot2,"",61,0,-1,-1,"Number of Bedrooms,Noise Pollution,Size of Home,Reputation of Closest School,Proximity to Parks,Washer/Dryer,Climate of Area","4 bdrm,Very High,1583 square feet,Good,20 min,Yes,Good","3 bdrm,High,407 square feet,Bad,15 min,Yes,Very Bad",0,8366,2021-10-24 16:57:30,3732
5be9fd84271bf10001525264,ma_choice_v2_pilot2,"",62,0,-1,-1,"Age of Building,Freshly Painted Exterior,Size of Garage,Climate of Area,Hardwood Floors,Washer/Dryer,Size of Home","Old,Yes,Large,Very Good,No,Yes,1040 square feet","Old,No,Small,Moderate,Yes,No,966 square feet",0,8803,2021-10-24 16:57:39,3733
5d8d8f8a7df28500133337d1,ma_choice_v2_pilot2,"",19,0,-1,-1,"Age of Building,Number of Bedrooms,Size of Home,Freshly Painted Exterior,Amount of Natural Light,Fireplace,Proximity to Cafes/Restaurants","Medium,2 bdrm,1767 square feet,No,A Moderate Amount,No,5 min","Old,3 bdrm,1883 square feet,No,A Little,No,25 min",0,23500,2021-10-24 16:57:46,3734
5be9fd84271bf10001525264,ma_choice_v2_pilot2,"",63,0,-1,-1,"Age of Building,Size of Yard,Freshly Painted Exterior,Proximity to Waterfront/Beaches,Fireplace,Central AC,Proximity to Cafes/Restaurants","Old,Large,No,10 min,No,No,20 min","Old,Large,No,70 min,No,Yes,15 min",1,9354,2021-10-24 16:57:50,3735
5d8d8f8a7df28500133337d1,ma_choice_v2_pilot2,"",20,0,-1,-1,"Size of Garage,Fireplace,Hardwood Floors,Size of Yard,Proximity to Waterfront/Beaches,Size of Home,Reputation of Closest School","Very Large,Yes,Yes,Small,10 min,732 square feet,Bad","Very Large,Yes,Yes,Large,70 min,485 square feet,Moderate",1,13337,2021-10-24 16:58:01,3736
5be9fd84271bf10001525264,ma_choice_v2_pilot2,"",64,0,-1,-1,"Central AC,Proximity to Parks,Washer/Dryer,Fireplace,Hardwood Floors,Amount of Natural Light,Number of Bedrooms","Yes,25 min,Yes,Yes,Yes,A Moderate Amount,4 bdrm","Yes,25 min,Yes,No,Yes,A Moderate Amount,4 bdrm",0,19396,2021-10-24 16:58:10,3737
5d8d8f8a7df28500133337d1,ma_choice_v2_pilot2,"",21,0,-1,-1,"Freshly Painted Exterior,Proximity to Cafes/Restaurants,Proximity to Parks,Age of Building,Proximity to Waterfront/Beaches,Size of Garage,Climate of Area","Yes,15 min,10 min,Old,30 min,None,Very Bad","Yes,15 min,15 min,Old,90 min,Very Large,Good",1,11851,2021-10-24 16:58:14,3738
5be9fd84271bf10001525264,ma_choice_v2_pilot2,"",65,0,-1,-1,"Size of Home,Central AC,Fireplace,Climate of Area,Freshly Painted Exterior,Washer/Dryer,Reputation of Closest School","751 square feet,Yes,Yes,Very Good,Yes,Yes,Bad","938 square feet,No,No,Very Bad,No,Yes,Very Good",0,16599,2021-10-24 16:58:28,3739
5d8d8f8a7df28500133337d1,ma_choice_v2_pilot2,"",22,0,-1,-1,"Amount of Natural Light,Size of Garage,Proximity to Parks,Freshly Painted Exterior,Central AC,Reputation of Closest School,Number of Bedrooms","A Moderate Amount,Large,20 min,No,Yes,Moderate,1 bdrm","A Moderate Amount,Very Large,15 min,Yes,Yes,Very Bad,4 bdrm",1,13993,2021-10-24 16:58:29,3740
5be9fd84271bf10001525264,ma_choice_v2_pilot2,"",66,0,-1,-1,"Amount of Natural Light,Noise Pollution,Climate of Area,Size of Home,Number of Bedrooms,Proximity to Cafes/Restaurants,Fireplace","A Lot,High,Very Bad,1547 square feet,2 bdrm,15 min,No","A Lot,Low,Moderate,555 square feet,2 bdrm,10 min,No",0,9808,2021-10-24 16:58:39,3741
5d8d8f8a7df28500133337d1,ma_choice_v2_pilot2,"",23,0,-1,-1,"Hardwood Floors,Size of Home,Washer/Dryer,Central AC,Number of Bedrooms,Climate of Area,Age of Building","No,800 square feet,No,No,3 bdrm,Bad,Old","No,1135 square feet,No,Yes,3 bdrm,Moderate,Medium",1,10813,2021-10-24 16:58:40,3742
5d8d8f8a7df28500133337d1,ma_choice_v2_pilot2,"",24,0,-1,-1,"Size of Home,Central AC,Fireplace,Freshly Painted Exterior,Climate of Area,Size of Garage,Proximity to Cafes/Restaurants","430 square feet,Yes,Yes,Yes,Bad,Medium,20 min","614 square feet,No,No,No,Moderate,None,5 min",0,12270,2021-10-24 16:58:54,3743
5be9fd84271bf10001525264,ma_choice_v2_pilot2,"",67,0,-1,-1,"Age of Building,Fireplace,Amount of Natural Light,Proximity to Parks,Climate of Area,Proximity to Waterfront/Beaches,Freshly Painted Exterior","Medium,No,Very Little,20 min,Moderate,30 min,No","Old,Yes,A Moderate Amount,20 min,Moderate,90 min,Yes",1,14129,2021-10-24 16:58:54,3744
5be9fd84271bf10001525264,ma_choice_v2_pilot2,"",68,0,-1,-1,"Proximity to Parks,Proximity to Waterfront/Beaches,Washer/Dryer,Fireplace,Age of Building,Climate of Area,Number of Bedrooms","10 min,70 min,Yes,No,Medium,Good,4 bdrm","5 min,70 min,No,Yes,Medium,Bad,3 bdrm",0,8351,2021-10-24 16:59:03,3745
5d8d8f8a7df28500133337d1,ma_choice_v2_pilot2,"",25,0,-1,-1,"Proximity to Waterfront/Beaches,Climate of Area,Size of Home,Amount of Natural Light,Noise Pollution,Size of Yard,Proximity to Parks","70 min,Very Bad,925 square feet,A Moderate Amount,Very Low,Medium,20 min","50 min,Very Bad,1675 square feet,A Little,High,Very Large,25 min",1,15341,2021-10-24 16:59:10,3746
5be9fd84271bf10001525264,ma_choice_v2_pilot2,"",69,0,-1,-1,"Amount of Natural Light,Climate of Area,Size of Yard,Freshly Painted Exterior,Central AC,Hardwood Floors,Size of Garage","A Moderate Amount,Good,Small,No,Yes,Yes,Small","A Lot,Very Bad,Small,Yes,Yes,Yes,Large",1,9191,2021-10-24 16:59:13,3747
5d8d8f8a7df28500133337d1,ma_choice_v2_pilot2,"",26,0,-1,-1,"Number of Bedrooms,Size of Yard,Size of Home,Age of Building,Noise Pollution,Amount of Natural Light,Climate of Area","1 bdrm,Very Large,1400 square feet,New,Very High,A Moderate Amount,Very Good","4 bdrm,None,781 square feet,New,Very Low,A Moderate Amount,Moderate",1,7898,2021-10-24 16:59:19,3748
5be9fd84271bf10001525264,ma_choice_v2_pilot2,"",70,0,-1,-1,"Proximity to Parks,Proximity to Waterfront/Beaches,Hardwood Floors,Central AC,Size of Garage,Climate of Area,Number of Bedrooms","5 min,50 min,Yes,Yes,Large,Very Good,2 bdrm","5 min,10 min,No,Yes,Very Large,Good,2 bdrm",0,15020,2021-10-24 16:59:29,3749
5d8d8f8a7df28500133337d1,ma_choice_v2_pilot2,"",27,0,-1,-1,"Climate of Area,Hardwood Floors,Reputation of Closest School,Proximity to Cafes/Restaurants,Size of Garage,Proximity to Waterfront/Beaches,Number of Bedrooms","Moderate,No,Bad,20 min,Very Large,90 min,2 bdrm","Bad,Yes,Very Good,20 min,Small,70 min,2 bdrm",1,15864,2021-10-24 16:59:36,3750
5be9fd84271bf10001525264,ma_choice_v2_pilot2,"",71,0,-1,-1,"Noise Pollution,Age of Building,Size of Garage,Proximity to Parks,Proximity to Waterfront/Beaches,Proximity to Cafes/Restaurants,Fireplace","Low,Medium,None,20 min,70 min,15 min,No","Very Low,Medium,Very Large,5 min,70 min,25 min,No",1,8993,2021-10-24 16:59:39,3751
5be9fd84271bf10001525264,ma_choice_v2_pilot2,"",72,0,-1,-1,"Climate of Area,Reputation of Closest School,Proximity to Parks,Noise Pollution,Fireplace,Size of Home,Age of Building","Very Good,Moderate,10 min,Very Low,No,1208 square feet,Old","Very Bad,Moderate,10 min,Very High,No,1429 square feet,Old",0,14279,2021-10-24 16:59:55,3752
5be9fd84271bf10001525264,ma_choice_v2_pilot2,"",73,0,-1,-1,"Climate of Area,Reputation of Closest School,Size of Yard,Amount of Natural Light,Washer/Dryer,Hardwood Floors,Freshly Painted Exterior","Very Bad,Very Bad,Small,A Moderate Amount,Yes,Yes,Yes","Good,Good,None,A Little,No,No,No",0,8592,2021-10-24 17:00:04,3753
5be9fd84271bf10001525264,ma_choice_v2_pilot2,"",74,0,-1,-1,"Fireplace,Proximity to Waterfront/Beaches,Washer/Dryer,Amount of Natural Light,Proximity to Parks,Central AC,Age of Building","Yes,70 min,Yes,A Lot,15 min,Yes,Old","No,10 min,No,Very Little,15 min,No,New",0,8272,2021-10-24 17:00:13,3754
5d8d8f8a7df28500133337d1,ma_choice_v2_pilot2,"",28,0,-1,-1,"Proximity to Waterfront/Beaches,Age of Building,Size of Garage,Proximity to Parks,Central AC,Hardwood Floors,Washer/Dryer","50 min,New,Very Large,10 min,No,No,Yes","10 min,New,Large,5 min,No,Yes,Yes",1,37414,2021-10-24 17:00:14,3755
5d8d8f8a7df28500133337d1,ma_choice_v2_pilot2,"",29,0,-1,-1,"Climate of Area,Size of Yard,Central AC,Number of Bedrooms,Size of Home,Reputation of Closest School,Proximity to Parks","Bad,Small,Yes,4 bdrm,1096 square feet,Bad,15 min","Very Good,None,Yes,2 bdrm,732 square feet,Very Good,20 min",0,19441,2021-10-24 17:00:35,3756
5d8d8f8a7df28500133337d1,ma_choice_v2_pilot2,"",30,0,-1,-1,"Proximity to Waterfront/Beaches,Climate of Area,Hardwood Floors,Reputation of Closest School,Fireplace,Age of Building,Freshly Painted Exterior","50 min,Very Good,Yes,Very Good,No,New,Yes","10 min,Very Good,Yes,Good,No,Medium,Yes",0,19793,2021-10-24 17:00:56,3757
5d8d8f8a7df28500133337d1,ma_choice_v2_pilot2,"",31,0,-1,-1,"Freshly Painted Exterior,Age of Building,Proximity to Cafes/Restaurants,Size of Garage,Number of Bedrooms,Climate of Area,Size of Home","No,New,15 min,Medium,4 bdrm,Good,463 square feet","No,Old,10 min,Medium,2 bdrm,Moderate,1077 square feet",1,15665,2021-10-24 17:01:12,3758
5d8d8f8a7df28500133337d1,ma_choice_v2_pilot2,"",32,0,-1,-1,"Size of Home,Age of Building,Number of Bedrooms,Size of Garage,Amount of Natural Light,Central AC,Fireplace","1778 square feet,New,3 bdrm,Small,A Moderate Amount,No,Yes","1414 square feet,New,2 bdrm,Large,Very Little,Yes,No",0,8245,2021-10-24 17:01:22,3759
5d8d8f8a7df28500133337d1,ma_choice_v2_pilot2,"",33,0,-1,-1,"Number of Bedrooms,Fireplace,Proximity to Waterfront/Beaches,Washer/Dryer,Freshly Painted Exterior,Size of Yard,Reputation of Closest School","2 bdrm,Yes,10 min,Yes,Yes,Small,Moderate","1 bdrm,Yes,90 min,Yes,Yes,Small,Very Good",0,7861,2021-10-24 17:01:30,3760
5d8d8f8a7df28500133337d1,ma_choice_v2_pilot2,"",34,0,-1,-1,"Proximity to Cafes/Restaurants,Climate of Area,Size of Home,Reputation of Closest School,Noise Pollution,Central AC,Size of Yard","5 min,Good,834 square feet,Moderate,Moderate,Yes,None","5 min,Very Bad,860 square feet,Very Bad,Very Low,No,Medium",0,12374,2021-10-24 17:01:44,3761
5d8d8f8a7df28500133337d1,ma_choice_v2_pilot2,"",35,0,-1,-1,"Central AC,Size of Yard,Fireplace,Age of Building,Proximity to Cafes/Restaurants,Amount of Natural Light,Size of Home","Yes,Small,Yes,New,20 min,Very Little,1952 square feet","Yes,Medium,Yes,Medium,10 min,A Moderate Amount,895 square feet",1,12950,2021-10-24 17:01:58,3762
5d8d8f8a7df28500133337d1,ma_choice_v2_pilot2,"",36,0,-1,-1,"Size of Yard,Proximity to Waterfront/Beaches,Proximity to Parks,Fireplace,Size of Garage,Washer/Dryer,Number of Bedrooms","Medium,30 min,15 min,Yes,Small,Yes,4 bdrm","Large,30 min,15 min,No,None,Yes,1 bdrm",0,9201,2021-10-24 17:02:08,3763
5d8d8f8a7df28500133337d1,ma_choice_v2_pilot2,"",37,0,-1,-1,"Number of Bedrooms,Proximity to Waterfront/Beaches,Freshly Painted Exterior,Age of Building,Noise Pollution,Fireplace,Amount of Natural Light","3 bdrm,30 min,No,New,Very Low,No,Very Little","3 bdrm,70 min,Yes,Medium,Very High,No,A Moderate Amount",1,15578,2021-10-24 17:02:25,3764
5d8d8f8a7df28500133337d1,ma_choice_v2_pilot2,"",38,0,-1,-1,"Proximity to Waterfront/Beaches,Number of Bedrooms,Proximity to Parks,Freshly Painted Exterior,Washer/Dryer,Fireplace,Noise Pollution","30 min,1 bdrm,10 min,No,Yes,Yes,Very High","30 min,2 bdrm,5 min,Yes,Yes,No,Low",1,14008,2021-10-24 17:02:40,3765
5d8d8f8a7df28500133337d1,ma_choice_v2_pilot2,"",39,0,-1,-1,"Age of Building,Hardwood Floors,Washer/Dryer,Size of Garage,Amount of Natural Light,Fireplace,Number of Bedrooms","Old,No,No,Medium,A Little,No,3 bdrm","Medium,No,No,Medium,Very Little,No,2 bdrm",0,7810,2021-10-24 17:02:48,3766
5d8d8f8a7df28500133337d1,ma_choice_v2_pilot2,"",40,0,-1,-1,"Age of Building,Number of Bedrooms,Proximity to Cafes/Restaurants,Hardwood Floors,Reputation of Closest School,Size of Garage,Proximity to Waterfront/Beaches","Old,4 bdrm,20 min,Yes,Bad,Medium,90 min","Medium,1 bdrm,10 min,Yes,Very Bad,None,50 min",0,10690,2021-10-24 17:03:00,3767
5d8d8f8a7df28500133337d1,ma_choice_v2_pilot2,"",41,0,-1,-1,"Noise Pollution,Amount of Natural Light,Number of Bedrooms,Hardwood Floors,Central AC,Reputation of Closest School,Climate of Area","Moderate,Very Little,3 bdrm,No,Yes,Good,Bad","Moderate,A Little,1 bdrm,Yes,No,Very Good,Moderate",0,8537,2021-10-24 17:03:10,3768
5d8d8f8a7df28500133337d1,ma_choice_v2_pilot2,"",42,0,-1,-1,"Amount of Natural Light,Hardwood Floors,Age of Building,Noise Pollution,Fireplace,Proximity to Waterfront/Beaches,Number of Bedrooms","A Lot,Yes,Medium,High,Yes,30 min,1 bdrm","A Moderate Amount,No,New,High,Yes,70 min,3 bdrm",1,8186,2021-10-24 17:03:19,3769
5d8d8f8a7df28500133337d1,ma_choice_v2_pilot2,"",43,0,-1,-1,"Size of Home,Central AC,Number of Bedrooms,Climate of Area,Fireplace,Proximity to Cafes/Restaurants,Washer/Dryer","535 square feet,Yes,1 bdrm,Moderate,Yes,20 min,Yes","903 square feet,No,3 bdrm,Very Bad,Yes,25 min,No",1,7873,2021-10-24 17:03:28,3770
5d8d8f8a7df28500133337d1,ma_choice_v2_pilot2,"",44,0,-1,-1,"Reputation of Closest School,Age of Building,Climate of Area,Hardwood Floors,Amount of Natural Light,Noise Pollution,Proximity to Waterfront/Beaches","Very Good,Medium,Good,No,Very Little,Very Low,30 min","Bad,Medium,Moderate,Yes,A Moderate Amount,Very Low,70 min",1,14905,2021-10-24 17:03:44,3771
5d8d8f8a7df28500133337d1,ma_choice_v2_pilot2,"",45,0,-1,-1,"Age of Building,Reputation of Closest School,Fireplace,Amount of Natural Light,Freshly Painted Exterior,Proximity to Cafes/Restaurants,Central AC","New,Very Bad,No,A Moderate Amount,No,20 min,No","Old,Moderate,Yes,A Little,No,20 min,Yes",0,13253,2021-10-24 17:03:58,3772
5d8d8f8a7df28500133337d1,ma_choice_v2_pilot2,"",46,0,-1,-1,"Freshly Painted Exterior,Size of Garage,Reputation of Closest School,Central AC,Noise Pollution,Fireplace,Size of Yard","No,Small,Moderate,Yes,High,Yes,Very Large","No,Large,Very Bad,No,Moderate,No,Very Large",0,9759,2021-10-24 17:04:09,3773
5d8d8f8a7df28500133337d1,ma_choice_v2_pilot2,"",47,0,-1,-1,"Proximity to Cafes/Restaurants,Age of Building,Size of Yard,Hardwood Floors,Fireplace,Freshly Painted Exterior,Amount of Natural Light","20 min,Medium,Medium,Yes,No,Yes,A Lot","25 min,Medium,Large,Yes,Yes,No,A Little",0,22836,2021-10-24 17:04:33,3774
5d8d8f8a7df28500133337d1,ma_choice_v2_pilot2,"",48,0,-1,-1,"Central AC,Proximity to Cafes/Restaurants,Proximity to Parks,Climate of Area,Washer/Dryer,Age of Building,Proximity to Waterfront/Beaches","Yes,5 min,10 min,Very Bad,Yes,New,70 min","No,5 min,5 min,Good,No,New,70 min",1,14436,2021-10-24 17:04:48,3775
5d8d8f8a7df28500133337d1,ma_choice_v2_pilot2,"",49,0,-1,-1,"Proximity to Waterfront/Beaches,Size of Yard,Fireplace,Central AC,Hardwood Floors,Climate of Area,Proximity to Cafes/Restaurants","30 min,Small,Yes,No,No,Moderate,10 min","10 min,Large,No,No,No,Very Good,20 min",0,26155,2021-10-24 17:05:15,3776
5d8d8f8a7df28500133337d1,ma_choice_v2_pilot2,"",50,0,-1,-1,"Size of Home,Hardwood Floors,Size of Garage,Age of Building,Proximity to Cafes/Restaurants,Washer/Dryer,Climate of Area","1091 square feet,Yes,None,New,20 min,Yes,Moderate","877 square feet,No,None,Old,25 min,No,Very Bad",0,29695,2021-10-24 17:05:46,3777
5d8d8f8a7df28500133337d1,ma_choice_v2_pilot2,"",51,0,-1,-1,"Washer/Dryer,Size of Home,Noise Pollution,Proximity to Parks,Size of Yard,Age of Building,Amount of Natural Light","Yes,1079 square feet,Low,15 min,Small,New,A Lot","Yes,1799 square feet,High,5 min,Small,Medium,A Lot",0,13162,2021-10-24 17:06:00,3778
5d8d8f8a7df28500133337d1,ma_choice_v2_pilot2,"",52,0,-1,-1,"Noise Pollution,Proximity to Parks,Size of Home,Climate of Area,Amount of Natural Light,Hardwood Floors,Size of Garage","Moderate,10 min,1462 square feet,Moderate,Very Little,No,Large","Very High,5 min,1342 square feet,Good,A Little,Yes,Small",1,10671,2021-10-24 17:06:12,3779
5d8d8f8a7df28500133337d1,ma_choice_v2_pilot2,"",53,0,-1,-1,"Proximity to Waterfront/Beaches,Age of Building,Reputation of Closest School,Central AC,Proximity to Cafes/Restaurants,Size of Garage,Hardwood Floors","10 min,Medium,Very Bad,Yes,20 min,Medium,Yes","30 min,Old,Good,Yes,15 min,None,Yes",0,19989,2021-10-24 17:06:33,3780
5d8d8f8a7df28500133337d1,ma_choice_v2_pilot2,"",54,0,-1,-1,"Amount of Natural Light,Noise Pollution,Size of Garage,Hardwood Floors,Freshly Painted Exterior,Size of Home,Proximity to Waterfront/Beaches","Very Little,Moderate,Large,No,Yes,502 square feet,70 min","A Little,Very High,Small,No,No,1050 square feet,10 min",1,10744,2021-10-24 17:06:45,3781
5d8d8f8a7df28500133337d1,ma_choice_v2_pilot2,"",55,0,-1,-1,"Freshly Painted Exterior,Washer/Dryer,Size of Home,Size of Yard,Hardwood Floors,Central AC,Fireplace","No,Yes,1379 square feet,Large,Yes,Yes,Yes","No,Yes,718 square feet,Medium,No,Yes,Yes",0,12483,2021-10-24 17:06:58,3782
5d8d8f8a7df28500133337d1,ma_choice_v2_pilot2,"",56,0,-1,-1,"Washer/Dryer,Fireplace,Central AC,Amount of Natural Light,Age of Building,Noise Pollution,Hardwood Floors","No,Yes,No,A Little,New,Low,No","Yes,Yes,No,A Lot,Old,Very High,Yes",1,15890,2021-10-24 17:07:15,3783
5d8d8f8a7df28500133337d1,ma_choice_v2_pilot2,"",57,0,-1,-1,"Proximity to Parks,Freshly Painted Exterior,Fireplace,Washer/Dryer,Size of Yard,Hardwood Floors,Age of Building","5 min,No,Yes,Yes,None,Yes,Medium","25 min,Yes,No,No,Large,Yes,New",0,13292,2021-10-24 17:07:29,3784
5d8d8f8a7df28500133337d1,ma_choice_v2_pilot2,"",58,0,-1,-1,"Noise Pollution,Size of Garage,Fireplace,Proximity to Parks,Age of Building,Climate of Area,Number of Bedrooms","Low,Small,No,10 min,Medium,Very Good,2 bdrm","Very Low,Small,Yes,10 min,Old,Very Good,4 bdrm",1,11223,2021-10-24 17:07:42,3785
5d8d8f8a7df28500133337d1,ma_choice_v2_pilot2,"",59,0,-1,-1,"Proximity to Parks,Hardwood Floors,Proximity to Waterfront/Beaches,Central AC,Size of Home,Climate of Area,Size of Garage","20 min,Yes,30 min,No,579 square feet,Very Bad,Very Large","20 min,No,50 min,Yes,1700 square feet,Very Bad,Large",1,9090,2021-10-24 17:07:52,3786
5d8d8f8a7df28500133337d1,ma_choice_v2_pilot2,"",60,0,-1,-1,"Age of Building,Noise Pollution,Climate of Area,Reputation of Closest School,Hardwood Floors,Freshly Painted Exterior,Washer/Dryer","Old,Low,Bad,Bad,Yes,Yes,No","Medium,Moderate,Very Good,Very Bad,Yes,No,Yes",1,9309,2021-10-24 17:08:02,3787
5d8d8f8a7df28500133337d1,ma_choice_v2_pilot2,"",61,0,-1,-1,"Noise Pollution,Reputation of Closest School,Freshly Painted Exterior,Size of Garage,Number of Bedrooms,Size of Yard,Central AC","High,Very Bad,Yes,None,1 bdrm,Medium,Yes","Low,Moderate,No,Very Large,3 bdrm,None,Yes",1,7802,2021-10-24 17:08:11,3788
5d8d8f8a7df28500133337d1,ma_choice_v2_pilot2,"",62,0,-1,-1,"Size of Home,Number of Bedrooms,Central AC,Size of Yard,Hardwood Floors,Climate of Area,Washer/Dryer","1075 square feet,4 bdrm,Yes,Medium,No,Moderate,Yes","1064 square feet,1 bdrm,Yes,None,No,Moderate,No",0,9124,2021-10-24 17:08:21,3789
5d8d8f8a7df28500133337d1,ma_choice_v2_pilot2,"",63,0,-1,-1,"Age of Building,Central AC,Fireplace,Hardwood Floors,Noise Pollution,Climate of Area,Proximity to Parks","New,No,No,No,Very Low,Very Good,5 min","Old,Yes,No,Yes,Low,Very Good,25 min",1,14044,2021-10-24 17:08:36,3790
5d8d8f8a7df28500133337d1,ma_choice_v2_pilot2,"",64,0,-1,-1,"Washer/Dryer,Proximity to Cafes/Restaurants,Hardwood Floors,Amount of Natural Light,Proximity to Waterfront/Beaches,Climate of Area,Fireplace","Yes,5 min,No,Very Little,10 min,Good,No","No,20 min,No,A Little,70 min,Bad,Yes",1,9219,2021-10-24 17:08:46,3791
5d8d8f8a7df28500133337d1,ma_choice_v2_pilot2,"",65,0,-1,-1,"Proximity to Waterfront/Beaches,Size of Yard,Washer/Dryer,Proximity to Parks,Number of Bedrooms,Amount of Natural Light,Climate of Area","70 min,Very Large,No,15 min,4 bdrm,A Moderate Amount,Good","70 min,Small,Yes,15 min,3 bdrm,A Little,Very Good",1,14018,2021-10-24 17:09:01,3792
5d8d8f8a7df28500133337d1,ma_choice_v2_pilot2,"",66,0,-1,-1,"Size of Home,Number of Bedrooms,Age of Building,Noise Pollution,Size of Garage,Reputation of Closest School,Amount of Natural Light","1542 square feet,2 bdrm,Medium,Very High,Large,Moderate,A Lot","1885 square feet,2 bdrm,Medium,Very High,Large,Moderate,A Moderate Amount",0,14389,2021-10-24 17:09:17,3793
5d8d8f8a7df28500133337d1,ma_choice_v2_pilot2,"",67,0,-1,-1,"Noise Pollution,Size of Home,Size of Yard,Proximity to Parks,Hardwood Floors,Washer/Dryer,Central AC","High,511 square feet,Small,5 min,Yes,Yes,Yes","Very Low,1001 square feet,Large,15 min,Yes,Yes,Yes",1,15314,2021-10-24 17:09:33,3794
5d8d8f8a7df28500133337d1,ma_choice_v2_pilot2,"",68,0,-1,-1,"Amount of Natural Light,Age of Building,Proximity to Parks,Washer/Dryer,Hardwood Floors,Proximity to Cafes/Restaurants,Size of Yard","A Little,Medium,10 min,No,Yes,25 min,Small","A Lot,Medium,20 min,Yes,Yes,15 min,Large",1,12899,2021-10-24 17:09:47,3795
5d8d8f8a7df28500133337d1,ma_choice_v2_pilot2,"",69,0,-1,-1,"Proximity to Parks,Freshly Painted Exterior,Amount of Natural Light,Central AC,Hardwood Floors,Proximity to Cafes/Restaurants,Number of Bedrooms","15 min,No,A Moderate Amount,No,No,5 min,3 bdrm","20 min,No,A Little,No,No,25 min,4 bdrm",0,10433,2021-10-24 17:09:58,3796
5d8d8f8a7df28500133337d1,ma_choice_v2_pilot2,"",70,0,-1,-1,"Noise Pollution,Amount of Natural Light,Proximity to Parks,Proximity to Cafes/Restaurants,Central AC,Size of Garage,Fireplace","Very High,A Moderate Amount,20 min,25 min,Yes,Large,Yes","Very High,A Lot,25 min,5 min,Yes,Very Large,No",0,17478,2021-10-24 17:10:17,3797
5d8d8f8a7df28500133337d1,ma_choice_v2_pilot2,"",71,0,-1,-1,"Number of Bedrooms,Fireplace,Freshly Painted Exterior,Proximity to Cafes/Restaurants,Washer/Dryer,Hardwood Floors,Size of Home","2 bdrm,Yes,No,5 min,Yes,No,1643 square feet","3 bdrm,No,Yes,10 min,Yes,Yes,1264 square feet",0,14307,2021-10-24 17:10:32,3798
5d8d8f8a7df28500133337d1,ma_choice_v2_pilot2,"",72,0,-1,-1,"Size of Yard,Proximity to Cafes/Restaurants,Central AC,Freshly Painted Exterior,Age of Building,Washer/Dryer,Size of Garage","Large,15 min,No,No,Medium,Yes,Large","Large,25 min,Yes,No,Old,Yes,None",0,14841,2021-10-24 17:10:48,3799
5d8d8f8a7df28500133337d1,ma_choice_v2_pilot2,"",73,0,-1,-1,"Freshly Painted Exterior,Age of Building,Noise Pollution,Washer/Dryer,Proximity to Parks,Size of Garage,Climate of Area","Yes,Medium,High,No,25 min,Large,Very Bad","No,Old,High,Yes,15 min,Very Large,Bad",1,11320,2021-10-24 17:11:00,3800
5d8d8f8a7df28500133337d1,ma_choice_v2_pilot2,"",74,0,-1,-1,"Proximity to Cafes/Restaurants,Age of Building,Freshly Painted Exterior,Reputation of Closest School,Washer/Dryer,Size of Garage,Fireplace","5 min,New,Yes,Moderate,No,None,No","20 min,Old,Yes,Bad,Yes,None,No",1,12797,2021-10-24 17:11:14,3801
5d9c7310dc794d0017243e8c,ma_choice_v2_pilot2,"",0,1,-1,-1,"Number of Bedrooms,Age of Building,Proximity to Waterfront/Beaches,Proximity to Cafes/Restaurants,Proximity to Parks,Hardwood Floors,Amount of Natural Light","2 bdrm,New,10 min,15 min,25 min,Yes,A Moderate Amount","2 bdrm,Medium,10 min,10 min,5 min,Yes,A Lot",1,9781,2021-10-24 18:06:20,3802
5d9c7310dc794d0017243e8c,ma_choice_v2_pilot2,"",1,1,-1,-1,"Size of Home,Hardwood Floors,Washer/Dryer,Central AC,Number of Bedrooms,Amount of Natural Light,Noise Pollution","1207 square feet,Yes,No,No,3 bdrm,A Moderate Amount,Moderate","1656 square feet,Yes,Yes,No,2 bdrm,A Lot,Very High",1,10964,2021-10-24 18:06:32,3803
5d9c7310dc794d0017243e8c,ma_choice_v2_pilot2,"",2,1,-1,-1,"Hardwood Floors,Noise Pollution,Proximity to Waterfront/Beaches,Age of Building,Washer/Dryer,Central AC,Size of Home","No,High,30 min,Old,Yes,No,1557 square feet","No,Moderate,10 min,New,Yes,Yes,586 square feet",1,17433,2021-10-24 18:06:50,3804
5d9c7310dc794d0017243e8c,ma_choice_v2_pilot2,"",3,1,-1,-1,"Number of Bedrooms,Proximity to Cafes/Restaurants,Age of Building,Hardwood Floors,Amount of Natural Light,Reputation of Closest School,Size of Home","4 bdrm,10 min,Medium,No,A Lot,Bad,1097 square feet","4 bdrm,20 min,Old,Yes,A Little,Moderate,1585 square feet",0,8721,2021-10-24 18:07:00,3805
5d9c7310dc794d0017243e8c,ma_choice_v2_pilot2,"",4,1,-1,-1,"Age of Building,Amount of Natural Light,Washer/Dryer,Size of Yard,Fireplace,Reputation of Closest School,Proximity to Cafes/Restaurants","Old,A Little,Yes,Very Large,Yes,Bad,25 min","Old,A Lot,Yes,Small,No,Very Good,20 min",1,13963,2021-10-24 18:07:15,3806
5d9c7310dc794d0017243e8c,ma_choice_v2_pilot2,"",5,1,-1,-1,"Number of Bedrooms,Fireplace,Noise Pollution,Central AC,Hardwood Floors,Size of Yard,Reputation of Closest School","4 bdrm,Yes,Very Low,No,Yes,None,Good","1 bdrm,Yes,Low,No,Yes,None,Very Bad",0,17295,2021-10-24 18:07:33,3807
5d9c7310dc794d0017243e8c,ma_choice_v2_pilot2,"",6,1,-1,-1,"Reputation of Closest School,Amount of Natural Light,Washer/Dryer,Noise Pollution,Size of Garage,Size of Yard,Fireplace","Very Bad,A Lot,Yes,Very High,Very Large,Small,No","Very Bad,A Little,No,Very Low,Very Large,Very Large,No",0,8304,2021-10-24 18:07:42,3808
5d9c7310dc794d0017243e8c,ma_choice_v2_pilot2,"",7,1,-1,-1,"Proximity to Cafes/Restaurants,Climate of Area,Size of Home,Age of Building,Size of Yard,Number of Bedrooms,Fireplace","15 min,Very Bad,1047 square feet,Medium,Small,3 bdrm,Yes","10 min,Bad,587 square feet,Medium,Very Large,3 bdrm,Yes",1,12453,2021-10-24 18:07:56,3809
5d9c7310dc794d0017243e8c,ma_choice_v2_pilot2,"",8,1,-1,-1,"Size of Yard,Number of Bedrooms,Washer/Dryer,Age of Building,Amount of Natural Light,Proximity to Cafes/Restaurants,Climate of Area","None,3 bdrm,Yes,New,A Little,10 min,Very Good","Large,3 bdrm,Yes,Medium,Very Little,5 min,Moderate",1,16606,2021-10-24 18:08:13,3810
5d9c7310dc794d0017243e8c,ma_choice_v2_pilot2,"",9,1,-1,-1,"Reputation of Closest School,Proximity to Cafes/Restaurants,Size of Home,Amount of Natural Light,Size of Yard,Number of Bedrooms,Central AC","Moderate,5 min,863 square feet,A Little,None,2 bdrm,No","Very Good,5 min,952 square feet,A Moderate Amount,None,3 bdrm,Yes",1,8414,2021-10-24 18:08:23,3811
5d9c7310dc794d0017243e8c,ma_choice_v2_pilot2,"",0,0,-1,-1,"Central AC,Amount of Natural Light,Reputation of Closest School,Hardwood Floors,Freshly Painted Exterior,Proximity to Cafes/Restaurants,Fireplace","No,A Little,Very Good,No,Yes,20 min,Yes","No,A Moderate Amount,Bad,Yes,No,25 min,Yes",1,11749,2021-10-24 18:08:48,3812
5d9c7310dc794d0017243e8c,ma_choice_v2_pilot2,"",1,0,-1,-1,"Age of Building,Central AC,Size of Yard,Fireplace,Size of Garage,Hardwood Floors,Reputation of Closest School","New,No,Very Large,Yes,None,Yes,Moderate","New,Yes,None,Yes,None,No,Very Good",1,11673,2021-10-24 18:09:00,3813
5d9c7310dc794d0017243e8c,ma_choice_v2_pilot2,"",2,0,-1,-1,"Freshly Painted Exterior,Size of Yard,Climate of Area,Washer/Dryer,Reputation of Closest School,Age of Building,Size of Home","No,Small,Very Bad,No,Bad,Medium,1955 square feet","Yes,Medium,Moderate,No,Very Bad,Old,573 square feet",0,12024,2021-10-24 18:09:13,3814
5d9c7310dc794d0017243e8c,ma_choice_v2_pilot2,"",3,0,-1,-1,"Proximity to Waterfront/Beaches,Size of Yard,Freshly Painted Exterior,Hardwood Floors,Reputation of Closest School,Number of Bedrooms,Central AC","10 min,Very Large,No,No,Good,2 bdrm,Yes","90 min,Very Large,No,No,Bad,2 bdrm,No",0,9446,2021-10-24 18:09:24,3815
5d9c7310dc794d0017243e8c,ma_choice_v2_pilot2,"",4,0,-1,-1,"Central AC,Size of Garage,Hardwood Floors,Noise Pollution,Reputation of Closest School,Amount of Natural Light,Washer/Dryer","Yes,Very Large,Yes,Moderate,Moderate,A Lot,Yes","Yes,Large,Yes,Very Low,Good,A Lot,No",0,9105,2021-10-24 18:09:34,3816
5d9c7310dc794d0017243e8c,ma_choice_v2_pilot2,"",5,0,-1,-1,"Freshly Painted Exterior,Washer/Dryer,Size of Home,Size of Yard,Number of Bedrooms,Hardwood Floors,Amount of Natural Light","No,No,810 square feet,Very Large,1 bdrm,No,Very Little","Yes,No,1487 square feet,Very Large,4 bdrm,Yes,Very Little",1,10139,2021-10-24 18:09:45,3817
5d9c7310dc794d0017243e8c,ma_choice_v2_pilot2,"",6,0,-1,-1,"Size of Yard,Number of Bedrooms,Age of Building,Hardwood Floors,Noise Pollution,Climate of Area,Central AC","None,1 bdrm,New,No,Low,Bad,No","Small,2 bdrm,Old,Yes,High,Very Good,No",1,15362,2021-10-24 18:10:02,3818
5d9c7310dc794d0017243e8c,ma_choice_v2_pilot2,"",7,0,-1,-1,"Size of Home,Proximity to Parks,Proximity to Cafes/Restaurants,Central AC,Size of Garage,Hardwood Floors,Proximity to Waterfront/Beaches","1302 square feet,5 min,25 min,Yes,None,Yes,90 min","1388 square feet,15 min,10 min,Yes,None,No,50 min",1,10757,2021-10-24 18:10:13,3819
5d9c7310dc794d0017243e8c,ma_choice_v2_pilot2,"",8,0,-1,-1,"Amount of Natural Light,Number of Bedrooms,Reputation of Closest School,Size of Home,Noise Pollution,Hardwood Floors,Proximity to Parks","A Lot,2 bdrm,Moderate,1168 square feet,High,Yes,15 min","A Little,4 bdrm,Good,718 square feet,Moderate,No,15 min",0,12508,2021-10-24 18:10:27,3820
5d9c7310dc794d0017243e8c,ma_choice_v2_pilot2,"",9,0,-1,-1,"Washer/Dryer,Reputation of Closest School,Proximity to Parks,Size of Yard,Amount of Natural Light,Proximity to Cafes/Restaurants,Noise Pollution","No,Bad,10 min,Large,Very Little,25 min,Very High","Yes,Good,10 min,Medium,A Little,20 min,Low",1,8484,2021-10-24 18:10:36,3821
5d9c7310dc794d0017243e8c,ma_choice_v2_pilot2,"",10,0,-1,-1,"Amount of Natural Light,Fireplace,Proximity to Waterfront/Beaches,Number of Bedrooms,Reputation of Closest School,Size of Garage,Central AC","A Lot,No,30 min,3 bdrm,Very Good,Large,Yes","A Little,No,30 min,3 bdrm,Bad,Very Large,Yes",0,8469,2021-10-24 18:10:46,3822
5d9c7310dc794d0017243e8c,ma_choice_v2_pilot2,"",11,0,-1,-1,"Size of Garage,Proximity to Cafes/Restaurants,Amount of Natural Light,Noise Pollution,Reputation of Closest School,Central AC,Freshly Painted Exterior","Large,20 min,Very Little,High,Very Bad,No,No","Medium,25 min,A Lot,Very Low,Moderate,Yes,Yes",1,8012,2021-10-24 18:10:55,3823
5d9c7310dc794d0017243e8c,ma_choice_v2_pilot2,"",12,0,-1,-1,"Size of Garage,Hardwood Floors,Number of Bedrooms,Noise Pollution,Amount of Natural Light,Central AC,Size of Home","None,Yes,3 bdrm,Very High,A Little,No,1363 square feet","Very Large,Yes,4 bdrm,Moderate,A Lot,Yes,806 square feet",0,8292,2021-10-24 18:11:04,3824
5d9c7310dc794d0017243e8c,ma_choice_v2_pilot2,"",13,0,-1,-1,"Age of Building,Washer/Dryer,Hardwood Floors,Proximity to Parks,Fireplace,Size of Home,Proximity to Cafes/Restaurants","Old,Yes,Yes,10 min,No,558 square feet,25 min","Old,Yes,Yes,25 min,No,1010 square feet,25 min",1,9230,2021-10-24 18:11:14,3825
5d9c7310dc794d0017243e8c,ma_choice_v2_pilot2,"",14,0,-1,-1,"Central AC,Hardwood Floors,Reputation of Closest School,Proximity to Waterfront/Beaches,Noise Pollution,Amount of Natural Light,Age of Building","No,Yes,Moderate,30 min,Low,A Little,Medium","Yes,No,Moderate,10 min,Very High,A Moderate Amount,Medium",1,8494,2021-10-24 18:11:24,3826
5d9c7310dc794d0017243e8c,ma_choice_v2_pilot2,"",15,0,-1,-1,"Size of Garage,Central AC,Reputation of Closest School,Age of Building,Hardwood Floors,Noise Pollution,Freshly Painted Exterior","Medium,Yes,Very Good,Medium,No,Very Low,No","Medium,Yes,Good,Medium,No,Very High,Yes",0,8199,2021-10-24 18:11:33,3827
5d9c7310dc794d0017243e8c,ma_choice_v2_pilot2,"",16,0,-1,-1,"Proximity to Cafes/Restaurants,Climate of Area,Freshly Painted Exterior,Noise Pollution,Amount of Natural Light,Hardwood Floors,Central AC","20 min,Moderate,Yes,Moderate,A Little,Yes,No","10 min,Bad,No,Moderate,A Lot,Yes,No",1,9334,2021-10-24 18:11:43,3828
5d9c7310dc794d0017243e8c,ma_choice_v2_pilot2,"",17,0,-1,-1,"Size of Home,Fireplace,Size of Yard,Proximity to Parks,Noise Pollution,Reputation of Closest School,Climate of Area","1188 square feet,No,Very Large,15 min,Low,Very Bad,Very Bad","656 square feet,No,Small,15 min,Very Low,Very Good,Very Bad",0,8614,2021-10-24 18:11:53,3829
5d9c7310dc794d0017243e8c,ma_choice_v2_pilot2,"",18,0,-1,-1,"Size of Yard,Age of Building,Size of Home,Central AC,Amount of Natural Light,Proximity to Waterfront/Beaches,Climate of Area","Medium,New,494 square feet,Yes,A Little,30 min,Good","Very Large,Old,1809 square feet,Yes,A Little,90 min,Very Bad",1,10201,2021-10-24 18:12:04,3830
5d9c7310dc794d0017243e8c,ma_choice_v2_pilot2,"",19,0,-1,-1,"Size of Yard,Size of Garage,Proximity to Waterfront/Beaches,Size of Home,Amount of Natural Light,Noise Pollution,Fireplace","Small,Large,30 min,1306 square feet,A Little,Low,No","None,Small,70 min,868 square feet,A Moderate Amount,Moderate,No",0,9925,2021-10-24 18:12:15,3831
5d9c7310dc794d0017243e8c,ma_choice_v2_pilot2,"",20,0,-1,-1,"Proximity to Cafes/Restaurants,Number of Bedrooms,Size of Home,Proximity to Waterfront/Beaches,Age of Building,Size of Yard,Washer/Dryer","15 min,1 bdrm,803 square feet,70 min,Old,Very Large,Yes","25 min,4 bdrm,748 square feet,10 min,New,Medium,No",0,12945,2021-10-24 18:12:29,3832
5d9c7310dc794d0017243e8c,ma_choice_v2_pilot2,"",21,0,-1,-1,"Freshly Painted Exterior,Amount of Natural Light,Fireplace,Central AC,Climate of Area,Washer/Dryer,Number of Bedrooms","No,A Lot,No,No,Very Bad,No,4 bdrm","No,A Moderate Amount,Yes,No,Very Bad,No,4 bdrm",1,10245,2021-10-24 18:12:40,3833
5d9c7310dc794d0017243e8c,ma_choice_v2_pilot2,"",22,0,-1,-1,"Noise Pollution,Amount of Natural Light,Climate of Area,Fireplace,Proximity to Cafes/Restaurants,Reputation of Closest School,Freshly Painted Exterior","Moderate,Very Little,Moderate,Yes,15 min,Very Bad,Yes","Low,A Lot,Very Good,No,25 min,Bad,Yes",1,11611,2021-10-24 18:12:53,3834
5d9c7310dc794d0017243e8c,ma_choice_v2_pilot2,"",23,0,-1,-1,"Size of Home,Fireplace,Size of Yard,Freshly Painted Exterior,Number of Bedrooms,Proximity to Waterfront/Beaches,Central AC","551 square feet,No,None,Yes,2 bdrm,50 min,No","1010 square feet,Yes,Very Large,No,4 bdrm,10 min,Yes",1,8295,2021-10-24 18:13:02,3835
5d9c7310dc794d0017243e8c,ma_choice_v2_pilot2,"",24,0,-1,-1,"Proximity to Waterfront/Beaches,Fireplace,Noise Pollution,Washer/Dryer,Reputation of Closest School,Proximity to Cafes/Restaurants,Freshly Painted Exterior","10 min,No,Very High,Yes,Moderate,20 min,No","10 min,No,Very High,No,Very Good,15 min,Yes",0,8284,2021-10-24 18:13:12,3836
5d9c7310dc794d0017243e8c,ma_choice_v2_pilot2,"",25,0,-1,-1,"Central AC,Size of Yard,Size of Home,Freshly Painted Exterior,Size of Garage,Noise Pollution,Climate of Area","No,Large,1471 square feet,No,None,Moderate,Bad","Yes,Medium,1715 square feet,Yes,Medium,Very High,Bad",1,9280,2021-10-24 18:13:22,3837
5d9c7310dc794d0017243e8c,ma_choice_v2_pilot2,"",26,0,-1,-1,"Size of Garage,Proximity to Parks,Proximity to Waterfront/Beaches,Proximity to Cafes/Restaurants,Reputation of Closest School,Number of Bedrooms,Amount of Natural Light","Medium,20 min,30 min,5 min,Very Bad,3 bdrm,A Little","None,25 min,50 min,20 min,Very Good,1 bdrm,A Little",0,10055,2021-10-24 18:13:33,3838
5d9c7310dc794d0017243e8c,ma_choice_v2_pilot2,"",27,0,-1,-1,"Amount of Natural Light,Noise Pollution,Central AC,Reputation of Closest School,Age of Building,Proximity to Cafes/Restaurants,Size of Garage","A Lot,Very High,No,Good,Old,15 min,Medium","Very Little,High,No,Good,Old,25 min,Small",0,8721,2021-10-24 18:13:43,3839
5d9c7310dc794d0017243e8c,ma_choice_v2_pilot2,"",28,0,-1,-1,"Fireplace,Size of Yard,Proximity to Parks,Size of Home,Proximity to Waterfront/Beaches,Climate of Area,Number of Bedrooms","No,Medium,25 min,997 square feet,70 min,Very Good,3 bdrm","Yes,Large,25 min,480 square feet,30 min,Very Bad,4 bdrm",0,14787,2021-10-24 18:13:58,3840
5d9c7310dc794d0017243e8c,ma_choice_v2_pilot2,"",29,0,-1,-1,"Proximity to Parks,Climate of Area,Size of Yard,Fireplace,Size of Home,Noise Pollution,Proximity to Waterfront/Beaches","15 min,Good,Medium,Yes,991 square feet,Very Low,50 min","20 min,Bad,Small,No,847 square feet,Very Low,50 min",0,9849,2021-10-24 18:14:09,3841
5d9c7310dc794d0017243e8c,ma_choice_v2_pilot2,"",30,0,-1,-1,"Amount of Natural Light,Climate of Area,Central AC,Size of Home,Proximity to Cafes/Restaurants,Proximity to Parks,Reputation of Closest School","Very Little,Good,No,485 square feet,25 min,15 min,Bad","A Lot,Very Good,No,1069 square feet,20 min,25 min,Very Bad",1,9744,2021-10-24 18:14:20,3842
5d9c7310dc794d0017243e8c,ma_choice_v2_pilot2,"",31,0,-1,-1,"Reputation of Closest School,Freshly Painted Exterior,Number of Bedrooms,Size of Yard,Size of Garage,Amount of Natural Light,Washer/Dryer","Very Bad,No,1 bdrm,Very Large,None,A Moderate Amount,Yes","Very Bad,Yes,1 bdrm,Medium,Medium,Very Little,Yes",0,15516,2021-10-24 18:14:37,3843
5d9c7310dc794d0017243e8c,ma_choice_v2_pilot2,"",32,0,-1,-1,"Fireplace,Hardwood Floors,Reputation of Closest School,Noise Pollution,Climate of Area,Proximity to Waterfront/Beaches,Freshly Painted Exterior","Yes,No,Very Bad,High,Very Good,50 min,No","No,No,Bad,Very Low,Moderate,70 min,No",0,11912,2021-10-24 18:14:49,3844
5d9c7310dc794d0017243e8c,ma_choice_v2_pilot2,"",33,0,-1,-1,"Size of Home,Washer/Dryer,Amount of Natural Light,Climate of Area,Fireplace,Reputation of Closest School,Size of Yard","1346 square feet,No,A Little,Very Bad,Yes,Moderate,None","1659 square feet,Yes,A Little,Moderate,No,Very Bad,Very Large",1,7948,2021-10-24 18:14:58,3845
5d9c7310dc794d0017243e8c,ma_choice_v2_pilot2,"",34,0,-1,-1,"Proximity to Parks,Freshly Painted Exterior,Reputation of Closest School,Climate of Area,Number of Bedrooms,Noise Pollution,Size of Yard","10 min,Yes,Moderate,Very Bad,3 bdrm,Very High,None","25 min,No,Moderate,Good,4 bdrm,Very High,Medium",1,13913,2021-10-24 18:15:13,3846
5d9c7310dc794d0017243e8c,ma_choice_v2_pilot2,"",35,0,-1,-1,"Hardwood Floors,Number of Bedrooms,Proximity to Waterfront/Beaches,Noise Pollution,Age of Building,Size of Yard,Fireplace","No,2 bdrm,30 min,High,Old,None,Yes","No,3 bdrm,50 min,Very High,Medium,Small,Yes",0,10103,2021-10-24 18:15:24,3847
5d9c7310dc794d0017243e8c,ma_choice_v2_pilot2,"",36,0,-1,-1,"Size of Home,Noise Pollution,Central AC,Proximity to Parks,Climate of Area,Washer/Dryer,Hardwood Floors","1817 square feet,Moderate,Yes,10 min,Bad,Yes,No","1681 square feet,Very Low,Yes,5 min,Bad,Yes,No",1,12837,2021-10-24 18:15:38,3848
5d9c7310dc794d0017243e8c,ma_choice_v2_pilot2,"",37,0,-1,-1,"Washer/Dryer,Noise Pollution,Proximity to Parks,Amount of Natural Light,Reputation of Closest School,Number of Bedrooms,Central AC","Yes,High,20 min,A Moderate Amount,Bad,2 bdrm,Yes","No,Moderate,25 min,A Lot,Moderate,2 bdrm,No",0,7488,2021-10-24 18:15:47,3849
5d9c7310dc794d0017243e8c,ma_choice_v2_pilot2,"",38,0,-1,-1,"Climate of Area,Number of Bedrooms,Noise Pollution,Proximity to Parks,Size of Yard,Fireplace,Washer/Dryer","Moderate,2 bdrm,Very Low,5 min,Medium,Yes,No","Moderate,4 bdrm,High,25 min,Large,Yes,No",0,10018,2021-10-24 18:15:58,3850
5d9c7310dc794d0017243e8c,ma_choice_v2_pilot2,"",39,0,-1,-1,"Hardwood Floors,Central AC,Proximity to Parks,Age of Building,Number of Bedrooms,Size of Garage,Washer/Dryer","No,No,15 min,New,2 bdrm,Small,No","Yes,No,15 min,Medium,3 bdrm,Very Large,Yes",1,9000,2021-10-24 18:16:08,3851
5d9c7310dc794d0017243e8c,ma_choice_v2_pilot2,"",40,0,-1,-1,"Fireplace,Central AC,Climate of Area,Washer/Dryer,Amount of Natural Light,Size of Home,Proximity to Waterfront/Beaches","Yes,No,Good,No,Very Little,1602 square feet,70 min","Yes,No,Moderate,No,A Moderate Amount,1945 square feet,50 min",1,8608,2021-10-24 18:16:17,3852
5d9c7310dc794d0017243e8c,ma_choice_v2_pilot2,"",41,0,-1,-1,"Size of Garage,Noise Pollution,Hardwood Floors,Size of Yard,Proximity to Waterfront/Beaches,Proximity to Parks,Reputation of Closest School","Small,Very High,No,Medium,70 min,25 min,Very Bad","None,Low,Yes,Small,50 min,10 min,Very Good",1,8206,2021-10-24 18:16:27,3853
5d9c7310dc794d0017243e8c,ma_choice_v2_pilot2,"",42,0,-1,-1,"Amount of Natural Light,Climate of Area,Proximity to Waterfront/Beaches,Proximity to Cafes/Restaurants,Reputation of Closest School,Hardwood Floors,Fireplace","A Lot,Moderate,90 min,25 min,Very Bad,Yes,No","A Moderate Amount,Very Bad,50 min,25 min,Very Good,No,No",1,10506,2021-10-24 18:16:38,3854
5d9c7310dc794d0017243e8c,ma_choice_v2_pilot2,"",43,0,-1,-1,"Size of Home,Age of Building,Central AC,Hardwood Floors,Noise Pollution,Size of Yard,Reputation of Closest School","1232 square feet,Medium,Yes,Yes,High,Large,Very Bad","1502 square feet,Medium,No,No,Moderate,None,Bad",0,7790,2021-10-24 18:16:47,3855
