subject,version,assignmentId,trial,attribute,signed_weights,rating,least_preferred,most_preferred,rt1,rt2,stamp,id
5bff110c1ad00400016981d1,ma_choice_v2_pilot2,"",16,Size of Home,2,76,400 square feet,2000 square feet,5541,10899,2021-10-24 16:52:09,891
5bff110c1ad00400016981d1,ma_choice_v2_pilot2,"",12,Central AC,2,76,No,Yes,4729,15223,2021-10-24 16:52:29,892
5bff110c1ad00400016981d1,ma_choice_v2_pilot2,"",9,Washer/Dryer,2,12,No,Yes,3791,10896,2021-10-24 16:52:43,893
5bff110c1ad00400016981d1,ma_choice_v2_pilot2,"",2,Proximity to Parks,2,49,25 min,15 min,3788,10811,2021-10-24 16:52:58,894
5bff110c1ad00400016981d1,ma_choice_v2_pilot2,"",15,Freshly Painted Exterior,2,6,No,Yes,5216,9250,2021-10-24 16:53:12,895
5bff110c1ad00400016981d1,ma_choice_v2_pilot2,"",6,Reputation of Closest School,2,36,Very Bad,Moderate,6572,8097,2021-10-24 16:53:27,896
5bff110c1ad00400016981d1,ma_choice_v2_pilot2,"",3,Proximity to Cafes/Restaurants,2,29,25 min,10 min,6143,4829,2021-10-24 16:53:38,897
5bff110c1ad00400016981d1,ma_choice_v2_pilot2,"",7,Amount of Natural Light,2,57,Very Little,A Moderate Amount,5548,6996,2021-10-24 16:53:51,898
5bff110c1ad00400016981d1,ma_choice_v2_pilot2,"",11,Fireplace,2,25,No,Yes,4734,2507,2021-10-24 16:53:58,899
5bff110c1ad00400016981d1,ma_choice_v2_pilot2,"",1,Size of Garage,2,72,None,Large,5110,4715,2021-10-24 16:54:08,900
5bff110c1ad00400016981d1,ma_choice_v2_pilot2,"",0,Number of Bedrooms,2,51,1 bdrm,3 bdrm,6314,3924,2021-10-24 16:54:18,901
5bff110c1ad00400016981d1,ma_choice_v2_pilot2,"",13,Climate of Area,2,52,Very Bad,Very Good,6508,7096,2021-10-24 16:54:32,902
5bff110c1ad00400016981d1,ma_choice_v2_pilot2,"",10,Size of Yard,2,91,None,Very Large,7975,3288,2021-10-24 16:54:43,903
5bff110c1ad00400016981d1,ma_choice_v2_pilot2,"",5,Noise Pollution,2,63,Very High,Very Low,3590,6742,2021-10-24 16:54:53,904
5bff110c1ad00400016981d1,ma_choice_v2_pilot2,"",4,Proximity to Waterfront/Beaches,2,27,90 min,30 min,3124,4732,2021-10-24 16:55:01,905
5bff110c1ad00400016981d1,ma_choice_v2_pilot2,"",14,Hardwood Floors,2,10,No,Yes,3511,2075,2021-10-24 16:55:07,906
5bff110c1ad00400016981d1,ma_choice_v2_pilot2,"",8,Age of Building,2,35,Old,Medium,4940,4023,2021-10-24 16:55:16,907
5be9fd84271bf10001525264,ma_choice_v2_pilot2,"",8,Age of Building,2,0,Old,New,8913,22307,2021-10-24 17:03:30,908
5be9fd84271bf10001525264,ma_choice_v2_pilot2,"",0,Number of Bedrooms,2,75,1 bdrm,5 bdrm,12189,14538,2021-10-24 17:03:57,909
5be9fd84271bf10001525264,ma_choice_v2_pilot2,"",2,Proximity to Parks,2,0,25 min,5 min,3596,12379,2021-10-24 17:04:13,910
5be9fd84271bf10001525264,ma_choice_v2_pilot2,"",10,Size of Yard,2,87,None,Very Large,9268,6845,2021-10-24 17:04:29,911
5be9fd84271bf10001525264,ma_choice_v2_pilot2,"",12,Central AC,2,88,No,Yes,6962,4762,2021-10-24 17:04:41,912
5be9fd84271bf10001525264,ma_choice_v2_pilot2,"",11,Fireplace,2,0,No,No,5946,13282,2021-10-24 17:05:00,913
5be9fd84271bf10001525264,ma_choice_v2_pilot2,"",4,Proximity to Waterfront/Beaches,2,0,90 min,10 min,5890,12342,2021-10-24 17:05:18,914
5be9fd84271bf10001525264,ma_choice_v2_pilot2,"",1,Size of Garage,2,96,None,Very Large,4896,6850,2021-10-24 17:05:30,915
5be9fd84271bf10001525264,ma_choice_v2_pilot2,"",6,Reputation of Closest School,2,0,Very Bad,Very Good,3990,8036,2021-10-24 17:05:42,916
5be9fd84271bf10001525264,ma_choice_v2_pilot2,"",9,Washer/Dryer,2,69,No,Yes,7055,3365,2021-10-24 17:05:53,917
5be9fd84271bf10001525264,ma_choice_v2_pilot2,"",3,Proximity to Cafes/Restaurants,2,0,25 min,5 min,3963,7932,2021-10-24 17:06:05,918
5be9fd84271bf10001525264,ma_choice_v2_pilot2,"",14,Hardwood Floors,2,36,No,Yes,6836,3734,2021-10-24 17:06:15,919
5be9fd84271bf10001525264,ma_choice_v2_pilot2,"",15,Freshly Painted Exterior,2,12,No,Yes,5874,7062,2021-10-24 17:06:28,920
5be9fd84271bf10001525264,ma_choice_v2_pilot2,"",16,Size of Home,2,100,400 square feet,2000 square feet,3474,5184,2021-10-24 17:06:37,921
5be9fd84271bf10001525264,ma_choice_v2_pilot2,"",5,Noise Pollution,2,13,Very High,Very Low,5522,7234,2021-10-24 17:06:49,922
5be9fd84271bf10001525264,ma_choice_v2_pilot2,"",7,Amount of Natural Light,2,43,Very Little,A Lot,5332,5847,2021-10-24 17:07:01,923
5be9fd84271bf10001525264,ma_choice_v2_pilot2,"",13,Climate of Area,2,31,Very Bad,Very Good,4398,6201,2021-10-24 17:07:11,924
5d8d8f8a7df28500133337d1,ma_choice_v2_pilot2,"",16,Size of Home,2,50,400 square feet,1200 square feet,13595,14017,2021-10-24 17:12:45,925
5d8d8f8a7df28500133337d1,ma_choice_v2_pilot2,"",14,Hardwood Floors,2,24,No,Yes,10998,22253,2021-10-24 17:13:18,926
5d8d8f8a7df28500133337d1,ma_choice_v2_pilot2,"",3,Proximity to Cafes/Restaurants,2,8,25 min,5 min,11695,13907,2021-10-24 17:13:44,927
5d8d8f8a7df28500133337d1,ma_choice_v2_pilot2,"",4,Proximity to Waterfront/Beaches,2,24,90 min,10 min,7819,9325,2021-10-24 17:14:01,928
5d8d8f8a7df28500133337d1,ma_choice_v2_pilot2,"",2,Proximity to Parks,2,0,25 min,5 min,6537,7576,2021-10-24 17:14:15,929
5d8d8f8a7df28500133337d1,ma_choice_v2_pilot2,"",7,Amount of Natural Light,2,100,Very Little,A Lot,11836,7600,2021-10-24 17:14:34,930
5d8d8f8a7df28500133337d1,ma_choice_v2_pilot2,"",1,Size of Garage,2,10,None,Medium,6098,13547,2021-10-24 17:14:54,931
5d8d8f8a7df28500133337d1,ma_choice_v2_pilot2,"",11,Fireplace,2,51,No,Yes,6598,11727,2021-10-24 17:15:12,932
5d8d8f8a7df28500133337d1,ma_choice_v2_pilot2,"",13,Climate of Area,2,76,Very Bad,Very Good,7211,9062,2021-10-24 17:15:29,933
5d8d8f8a7df28500133337d1,ma_choice_v2_pilot2,"",12,Central AC,2,82,No,Yes,16353,4643,2021-10-24 17:15:50,934
5d8d8f8a7df28500133337d1,ma_choice_v2_pilot2,"",15,Freshly Painted Exterior,2,1,No,Yes,6177,9111,2021-10-24 17:16:05,935
5d8d8f8a7df28500133337d1,ma_choice_v2_pilot2,"",5,Noise Pollution,2,75,Very High,Very Low,6121,14312,2021-10-24 17:16:26,936
5d8d8f8a7df28500133337d1,ma_choice_v2_pilot2,"",9,Washer/Dryer,2,88,No,Yes,4761,9642,2021-10-24 17:16:40,937
5d8d8f8a7df28500133337d1,ma_choice_v2_pilot2,"",8,Age of Building,2,0,Old,New,45001,5651,2021-10-24 17:17:31,938
5d8d8f8a7df28500133337d1,ma_choice_v2_pilot2,"",10,Size of Yard,2,24,None,Medium,16405,10158,2021-10-24 17:17:57,939
5d8d8f8a7df28500133337d1,ma_choice_v2_pilot2,"",6,Reputation of Closest School,2,0,Good,Good,6148,10039,2021-10-24 17:18:13,940
5d8d8f8a7df28500133337d1,ma_choice_v2_pilot2,"",0,Number of Bedrooms,2,88,1 bdrm,3 bdrm,10255,7931,2021-10-24 17:18:32,941
5d9c7310dc794d0017243e8c,ma_choice_v2_pilot2,"",15,Freshly Painted Exterior,1,0,No,Yes,3994,20823,2021-10-24 18:24:09,942
5d9c7310dc794d0017243e8c,ma_choice_v2_pilot2,"",3,Proximity to Cafes/Restaurants,1,1,25 min,5 min,4419,7520,2021-10-24 18:24:21,943
5d9c7310dc794d0017243e8c,ma_choice_v2_pilot2,"",12,Central AC,1,1,No,Yes,6151,5426,2021-10-24 18:24:33,944
5d9c7310dc794d0017243e8c,ma_choice_v2_pilot2,"",13,Climate of Area,1,0,Very Bad,Very Good,3029,6852,2021-10-24 18:24:43,945
5d9c7310dc794d0017243e8c,ma_choice_v2_pilot2,"",4,Proximity to Waterfront/Beaches,1,1,90 min,10 min,3068,4765,2021-10-24 18:24:50,946
5d9c7310dc794d0017243e8c,ma_choice_v2_pilot2,"",10,Size of Yard,1,0,None,Very Large,7101,5225,2021-10-24 18:25:03,947
5d9c7310dc794d0017243e8c,ma_choice_v2_pilot2,"",2,Proximity to Parks,1,1,25 min,5 min,4416,4190,2021-10-24 18:25:11,948
5d9c7310dc794d0017243e8c,ma_choice_v2_pilot2,"",16,Size of Home,1,1,400 square feet,1200 square feet,4247,5323,2021-10-24 18:25:21,949
5d9c7310dc794d0017243e8c,ma_choice_v2_pilot2,"",6,Reputation of Closest School,1,0,Very Bad,Very Good,3022,5044,2021-10-24 18:25:29,950
5d9c7310dc794d0017243e8c,ma_choice_v2_pilot2,"",9,Washer/Dryer,1,1,No,Yes,2662,3640,2021-10-24 18:25:35,951
5d9c7310dc794d0017243e8c,ma_choice_v2_pilot2,"",8,Age of Building,1,0,Old,New,3419,3911,2021-10-24 18:25:43,952
5d9c7310dc794d0017243e8c,ma_choice_v2_pilot2,"",5,Noise Pollution,1,0,Very High,Very Low,3284,9011,2021-10-24 18:25:55,953
5d9c7310dc794d0017243e8c,ma_choice_v2_pilot2,"",1,Size of Garage,1,0,None,Medium,2637,5362,2021-10-24 18:26:03,954
5d9c7310dc794d0017243e8c,ma_choice_v2_pilot2,"",0,Number of Bedrooms,1,1,1 bdrm,3 bdrm,2480,4255,2021-10-24 18:26:10,955
5d9c7310dc794d0017243e8c,ma_choice_v2_pilot2,"",7,Amount of Natural Light,1,1,Very Little,A Lot,2469,5904,2021-10-24 18:26:18,956
5d9c7310dc794d0017243e8c,ma_choice_v2_pilot2,"",14,Hardwood Floors,1,0,No,Yes,2965,3873,2021-10-24 18:26:25,957
5d9c7310dc794d0017243e8c,ma_choice_v2_pilot2,"",11,Fireplace,1,0,No,Yes,3522,3521,2021-10-24 18:26:32,958
5c1d10be426c440001885e1c,ma_choice_v2_pilot2,"",15,Freshly Painted Exterior,2,0,No,Yes,5758,12398,2021-10-24 18:42:37,959
5c1d10be426c440001885e1c,ma_choice_v2_pilot2,"",11,Fireplace,2,12,No,Yes,4642,4838,2021-10-24 18:42:47,960
5c1d10be426c440001885e1c,ma_choice_v2_pilot2,"",6,Reputation of Closest School,2,50,Very Bad,Very Good,7521,10967,2021-10-24 18:43:05,961
5c1d10be426c440001885e1c,ma_choice_v2_pilot2,"",12,Central AC,2,25,No,Yes,6937,4663,2021-10-24 18:43:17,962
5c1d10be426c440001885e1c,ma_choice_v2_pilot2,"",1,Size of Garage,2,0,None,Medium,3594,8839,2021-10-24 18:43:29,963
5c1d10be426c440001885e1c,ma_choice_v2_pilot2,"",9,Washer/Dryer,2,0,No,Yes,7786,3919,2021-10-24 18:43:41,964
5c1d10be426c440001885e1c,ma_choice_v2_pilot2,"",8,Age of Building,2,75,Old,New,4695,7319,2021-10-24 18:43:53,965
5c1d10be426c440001885e1c,ma_choice_v2_pilot2,"",14,Hardwood Floors,2,50,No,Yes,4394,4367,2021-10-24 18:44:02,966
5c1d10be426c440001885e1c,ma_choice_v2_pilot2,"",0,Number of Bedrooms,2,76,1 bdrm,3 bdrm,6722,9855,2021-10-24 18:44:18,967
5c1d10be426c440001885e1c,ma_choice_v2_pilot2,"",3,Proximity to Cafes/Restaurants,2,38,25 min,5 min,3770,6695,2021-10-24 18:44:29,968
5c1d10be426c440001885e1c,ma_choice_v2_pilot2,"",10,Size of Yard,2,50,None,Very Large,3802,5686,2021-10-24 18:44:38,969
5c1d10be426c440001885e1c,ma_choice_v2_pilot2,"",2,Proximity to Parks,2,52,25 min,5 min,4306,4751,2021-10-24 18:44:47,970
5c1d10be426c440001885e1c,ma_choice_v2_pilot2,"",5,Noise Pollution,2,87,Very High,Very Low,5954,5751,2021-10-24 18:44:59,971
5c1d10be426c440001885e1c,ma_choice_v2_pilot2,"",7,Amount of Natural Light,2,63,Very Little,A Lot,3121,5503,2021-10-24 18:45:08,972
5c1d10be426c440001885e1c,ma_choice_v2_pilot2,"",16,Size of Home,2,90,400 square feet,2000 square feet,4873,4351,2021-10-24 18:45:17,973
5c1d10be426c440001885e1c,ma_choice_v2_pilot2,"",13,Climate of Area,2,89,Very Bad,Very Good,3634,4055,2021-10-24 18:45:24,974
5c1d10be426c440001885e1c,ma_choice_v2_pilot2,"",4,Proximity to Waterfront/Beaches,2,50,90 min,10 min,3177,5295,2021-10-24 18:45:33,975
55b6d0a4fdf99b437183f9b5,ma_choice_v2_pilot2,"",1,Size of Garage,2,0,None,Medium,3845,10463,2021-10-24 19:24:49,976
55b6d0a4fdf99b437183f9b5,ma_choice_v2_pilot2,"",9,Washer/Dryer,2,13,No,Yes,4225,12208,2021-10-24 19:25:05,977
55b6d0a4fdf99b437183f9b5,ma_choice_v2_pilot2,"",2,Proximity to Parks,2,25,25 min,5 min,5922,5496,2021-10-24 19:25:17,978
55b6d0a4fdf99b437183f9b5,ma_choice_v2_pilot2,"",5,Noise Pollution,2,75,Very High,Very Low,6451,6783,2021-10-24 19:25:30,979
55b6d0a4fdf99b437183f9b5,ma_choice_v2_pilot2,"",10,Size of Yard,2,25,None,Medium,4184,7070,2021-10-24 19:25:41,980
55b6d0a4fdf99b437183f9b5,ma_choice_v2_pilot2,"",11,Fireplace,2,13,No,Yes,4284,8517,2021-10-24 19:25:54,981
55b6d0a4fdf99b437183f9b5,ma_choice_v2_pilot2,"",16,Size of Home,2,12,2000 square feet,1200 square feet,3828,9291,2021-10-24 19:26:07,982
55b6d0a4fdf99b437183f9b5,ma_choice_v2_pilot2,"",15,Freshly Painted Exterior,2,0,No,Yes,3977,4922,2021-10-24 19:26:16,983
55b6d0a4fdf99b437183f9b5,ma_choice_v2_pilot2,"",12,Central AC,2,37,No,Yes,4441,4206,2021-10-24 19:26:25,984
55b6d0a4fdf99b437183f9b5,ma_choice_v2_pilot2,"",8,Age of Building,2,13,Old,Medium,3016,6013,2021-10-24 19:26:34,985
55b6d0a4fdf99b437183f9b5,ma_choice_v2_pilot2,"",3,Proximity to Cafes/Restaurants,2,61,25 min,5 min,3737,6039,2021-10-24 19:26:44,986
55b6d0a4fdf99b437183f9b5,ma_choice_v2_pilot2,"",13,Climate of Area,2,76,Very Bad,Very Good,4727,4864,2021-10-24 19:26:53,987
55b6d0a4fdf99b437183f9b5,ma_choice_v2_pilot2,"",0,Number of Bedrooms,2,12,1 bdrm,3 bdrm,2932,4707,2021-10-24 19:27:01,988
55b6d0a4fdf99b437183f9b5,ma_choice_v2_pilot2,"",14,Hardwood Floors,2,25,No,Yes,3640,3965,2021-10-24 19:27:09,989
55b6d0a4fdf99b437183f9b5,ma_choice_v2_pilot2,"",7,Amount of Natural Light,2,37,Very Little,A Lot,3763,4680,2021-10-24 19:27:17,990
55b6d0a4fdf99b437183f9b5,ma_choice_v2_pilot2,"",4,Proximity to Waterfront/Beaches,2,62,90 min,10 min,3231,5213,2021-10-24 19:27:26,991
55b6d0a4fdf99b437183f9b5,ma_choice_v2_pilot2,"",6,Reputation of Closest School,2,0,Very Bad,Very Good,3416,6170,2021-10-24 19:27:35,992
5b9b4cc406114100010660f0,ma_choice_v2_pilot2,"",12,Central AC,1,0,No,No,4838,11093,2021-10-24 19:30:02,993
5b9b4cc406114100010660f0,ma_choice_v2_pilot2,"",8,Age of Building,1,0,New,Old,3501,7847,2021-10-24 19:30:13,994
5b9b4cc406114100010660f0,ma_choice_v2_pilot2,"",16,Size of Home,1,1,1200 square feet,2000 square feet,2757,7919,2021-10-24 19:30:24,995
5b9b4cc406114100010660f0,ma_choice_v2_pilot2,"",0,Number of Bedrooms,1,1,1 bdrm,5 bdrm,3277,8815,2021-10-24 19:30:36,996
5b9b4cc406114100010660f0,ma_choice_v2_pilot2,"",5,Noise Pollution,1,1,Very High,Very Low,8525,6743,2021-10-24 19:30:51,997
5b9b4cc406114100010660f0,ma_choice_v2_pilot2,"",3,Proximity to Cafes/Restaurants,1,0,25 min,15 min,3981,7591,2021-10-24 19:31:02,998
5b9b4cc406114100010660f0,ma_choice_v2_pilot2,"",13,Climate of Area,1,1,Very Bad,Very Good,2589,7070,2021-10-24 19:31:12,999
5b9b4cc406114100010660f0,ma_choice_v2_pilot2,"",14,Hardwood Floors,1,0,No,No,4325,12383,2021-10-24 19:31:29,1000
5b9b4cc406114100010660f0,ma_choice_v2_pilot2,"",10,Size of Yard,1,1,None,Very Large,2589,4863,2021-10-24 19:31:36,1001
5b9b4cc406114100010660f0,ma_choice_v2_pilot2,"",7,Amount of Natural Light,1,1,Very Little,A Lot,6029,6494,2021-10-24 19:31:49,1002
5b9b4cc406114100010660f0,ma_choice_v2_pilot2,"",1,Size of Garage,1,0,None,Medium,4205,4423,2021-10-24 19:31:57,1003
5b9b4cc406114100010660f0,ma_choice_v2_pilot2,"",11,Fireplace,1,1,No,Yes,2661,4935,2021-10-24 19:32:05,1004
5b9b4cc406114100010660f0,ma_choice_v2_pilot2,"",2,Proximity to Parks,1,0,25 min,15 min,3085,8167,2021-10-24 19:32:16,1005
5b9b4cc406114100010660f0,ma_choice_v2_pilot2,"",4,Proximity to Waterfront/Beaches,1,0,90 min,30 min,3700,6927,2021-10-24 19:32:27,1006
5b9b4cc406114100010660f0,ma_choice_v2_pilot2,"",6,Reputation of Closest School,1,1,Very Bad,Very Good,2915,4359,2021-10-24 19:32:34,1007
5b9b4cc406114100010660f0,ma_choice_v2_pilot2,"",15,Freshly Painted Exterior,1,0,Yes,No,2973,7903,2021-10-24 19:32:45,1008
5b9b4cc406114100010660f0,ma_choice_v2_pilot2,"",9,Washer/Dryer,1,1,No,Yes,2341,4183,2021-10-24 19:32:52,1009
57dda8dc5e1b5f0001d2d5b1,ma_choice_v2_pilot2,"",0,Number of Bedrooms,2,64,1 bdrm,5 bdrm,5611,7258,2021-10-24 19:56:11,1010
57dda8dc5e1b5f0001d2d5b1,ma_choice_v2_pilot2,"",16,Size of Home,2,67,400 square feet,1200 square feet,5133,8345,2021-10-24 19:56:24,1011
57dda8dc5e1b5f0001d2d5b1,ma_choice_v2_pilot2,"",15,Freshly Painted Exterior,2,12,No,Yes,4164,12584,2021-10-24 19:56:41,1012
57dda8dc5e1b5f0001d2d5b1,ma_choice_v2_pilot2,"",5,Noise Pollution,2,63,Very High,Very Low,3811,5406,2021-10-24 19:56:50,1013
57dda8dc5e1b5f0001d2d5b1,ma_choice_v2_pilot2,"",4,Proximity to Waterfront/Beaches,2,38,90 min,10 min,4478,6458,2021-10-24 19:57:01,1014
57dda8dc5e1b5f0001d2d5b1,ma_choice_v2_pilot2,"",10,Size of Yard,2,51,None,Large,2883,5341,2021-10-24 19:57:09,1015
57dda8dc5e1b5f0001d2d5b1,ma_choice_v2_pilot2,"",13,Climate of Area,2,53,Very Bad,Very Good,5469,5353,2021-10-24 19:57:20,1016
57dda8dc5e1b5f0001d2d5b1,ma_choice_v2_pilot2,"",7,Amount of Natural Light,2,36,Very Little,A Moderate Amount,22428,42875,2021-10-24 19:58:26,1017
57dda8dc5e1b5f0001d2d5b1,ma_choice_v2_pilot2,"",1,Size of Garage,2,37,None,Large,3995,6235,2021-10-24 19:58:36,1018
57dda8dc5e1b5f0001d2d5b1,ma_choice_v2_pilot2,"",3,Proximity to Cafes/Restaurants,2,29,25 min,5 min,6724,5720,2021-10-24 19:58:48,1019
57dda8dc5e1b5f0001d2d5b1,ma_choice_v2_pilot2,"",9,Washer/Dryer,2,21,No,Yes,4296,3194,2021-10-24 19:58:56,1020
57dda8dc5e1b5f0001d2d5b1,ma_choice_v2_pilot2,"",2,Proximity to Parks,2,32,25 min,5 min,5307,3969,2021-10-24 19:59:05,1021
57dda8dc5e1b5f0001d2d5b1,ma_choice_v2_pilot2,"",12,Central AC,2,49,No,Yes,28065,4792,2021-10-24 19:59:38,1022
57dda8dc5e1b5f0001d2d5b1,ma_choice_v2_pilot2,"",11,Fireplace,2,27,No,Yes,4154,4879,2021-10-24 19:59:47,1023
57dda8dc5e1b5f0001d2d5b1,ma_choice_v2_pilot2,"",8,Age of Building,2,64,Old,New,3761,4748,2021-10-24 19:59:55,1024
57dda8dc5e1b5f0001d2d5b1,ma_choice_v2_pilot2,"",14,Hardwood Floors,2,25,No,Yes,7498,3582,2021-10-24 20:00:07,1025
57dda8dc5e1b5f0001d2d5b1,ma_choice_v2_pilot2,"",6,Reputation of Closest School,2,80,Very Bad,Very Good,4412,4995,2021-10-24 20:00:16,1026
5b89da88bca3400001fa8809,ma_choice_v2_pilot2,"",5,Noise Pollution,2,76,Very High,Very Low,3249,11271,2021-10-24 20:09:08,1027
5b89da88bca3400001fa8809,ma_choice_v2_pilot2,"",11,Fireplace,2,14,No,Yes,2993,9982,2021-10-24 20:09:21,1028
5b89da88bca3400001fa8809,ma_choice_v2_pilot2,"",4,Proximity to Waterfront/Beaches,2,51,90 min,10 min,3474,5198,2021-10-24 20:09:29,1029
5b89da88bca3400001fa8809,ma_choice_v2_pilot2,"",15,Freshly Painted Exterior,2,0,No,Yes,4051,6479,2021-10-24 20:09:40,1030
5b89da88bca3400001fa8809,ma_choice_v2_pilot2,"",9,Washer/Dryer,2,61,No,Yes,2986,4582,2021-10-24 20:09:48,1031
5b89da88bca3400001fa8809,ma_choice_v2_pilot2,"",7,Amount of Natural Light,2,86,Very Little,A Lot,3084,5879,2021-10-24 20:09:57,1032
5b89da88bca3400001fa8809,ma_choice_v2_pilot2,"",13,Climate of Area,2,74,Very Bad,Very Good,2587,3389,2021-10-24 20:10:03,1033
5f4d2221a1cde598e2369c70,ma_choice_v2_pilot2,"",10,Size of Yard,2,11,Very Large,Small,3163,8034,2021-10-24 20:10:08,1034
5b89da88bca3400001fa8809,ma_choice_v2_pilot2,"",3,Proximity to Cafes/Restaurants,2,35,25 min,5 min,2700,4983,2021-10-24 20:10:10,1035
5f4d2221a1cde598e2369c70,ma_choice_v2_pilot2,"",8,Age of Building,2,11,Old,Medium,3974,6375,2021-10-24 20:10:18,1036
5b89da88bca3400001fa8809,ma_choice_v2_pilot2,"",0,Number of Bedrooms,2,39,5 bdrm,1 bdrm,4259,6955,2021-10-24 20:10:21,1037
5b89da88bca3400001fa8809,ma_choice_v2_pilot2,"",8,Age of Building,2,71,Old,New,3414,2847,2021-10-24 20:10:28,1038
5f4d2221a1cde598e2369c70,ma_choice_v2_pilot2,"",12,Central AC,2,100,No,Yes,5518,9162,2021-10-24 20:10:33,1039
5b89da88bca3400001fa8809,ma_choice_v2_pilot2,"",16,Size of Home,2,61,400 square feet,2000 square feet,3171,3575,2021-10-24 20:10:34,1040
5f4d2221a1cde598e2369c70,ma_choice_v2_pilot2,"",11,Fireplace,2,74,No,Yes,3931,3039,2021-10-24 20:10:40,1041
5b89da88bca3400001fa8809,ma_choice_v2_pilot2,"",1,Size of Garage,2,25,Very Large,Small,3499,4999,2021-10-24 20:10:43,1042
5f4d2221a1cde598e2369c70,ma_choice_v2_pilot2,"",4,Proximity to Waterfront/Beaches,2,12,90 min,30 min,2955,6347,2021-10-24 20:10:49,1043
5b89da88bca3400001fa8809,ma_choice_v2_pilot2,"",12,Central AC,2,76,No,Yes,3402,2750,2021-10-24 20:10:49,1044
5b89da88bca3400001fa8809,ma_choice_v2_pilot2,"",10,Size of Yard,2,38,None,Medium,2251,4543,2021-10-24 20:10:56,1045
5f4d2221a1cde598e2369c70,ma_choice_v2_pilot2,"",1,Size of Garage,2,42,Very Large,Medium,4443,5043,2021-10-24 20:10:58,1046
5f4d2221a1cde598e2369c70,ma_choice_v2_pilot2,"",14,Hardwood Floors,2,31,No,Yes,3635,2551,2021-10-24 20:11:05,1047
5b89da88bca3400001fa8809,ma_choice_v2_pilot2,"",14,Hardwood Floors,2,0,No,Yes,3020,6487,2021-10-24 20:11:05,1048
5f4d2221a1cde598e2369c70,ma_choice_v2_pilot2,"",2,Proximity to Parks,2,8,25 min,5 min,2851,4479,2021-10-24 20:11:12,1049
5b89da88bca3400001fa8809,ma_choice_v2_pilot2,"",2,Proximity to Parks,2,28,25 min,10 min,2396,5422,2021-10-24 20:11:13,1050
5f4d2221a1cde598e2369c70,ma_choice_v2_pilot2,"",3,Proximity to Cafes/Restaurants,2,41,25 min,5 min,2939,4027,2021-10-24 20:11:19,1051
5f4d2221a1cde598e2369c70,ma_choice_v2_pilot2,"",5,Noise Pollution,2,86,Very High,Very Low,3015,3935,2021-10-24 20:11:26,1052
5f4d2221a1cde598e2369c70,ma_choice_v2_pilot2,"",0,Number of Bedrooms,2,37,5 bdrm,3 bdrm,3562,5175,2021-10-24 20:11:35,1053
5f4d2221a1cde598e2369c70,ma_choice_v2_pilot2,"",7,Amount of Natural Light,2,56,Very Little,A Moderate Amount,2599,5387,2021-10-24 20:11:43,1054
5f4d2221a1cde598e2369c70,ma_choice_v2_pilot2,"",16,Size of Home,2,38,2000 square feet,1200 square feet,2955,5079,2021-10-24 20:11:51,1055
5f4d2221a1cde598e2369c70,ma_choice_v2_pilot2,"",6,Reputation of Closest School,2,3,Very Bad,Very Good,3051,7847,2021-10-24 20:12:02,1056
5f4d2221a1cde598e2369c70,ma_choice_v2_pilot2,"",9,Washer/Dryer,2,91,No,Yes,3174,4307,2021-10-24 20:12:09,1057
5f4d2221a1cde598e2369c70,ma_choice_v2_pilot2,"",15,Freshly Painted Exterior,2,25,No,Yes,2578,2991,2021-10-24 20:12:15,1058
5f4d2221a1cde598e2369c70,ma_choice_v2_pilot2,"",13,Climate of Area,2,66,Very Bad,Good,3239,4227,2021-10-24 20:12:22,1059
5f4f8db38647e304a863fdfc,ma_choice_v2_pilot2,"",4,Proximity to Waterfront/Beaches,2,6,10 min,70 min,3875,10251,2021-10-24 20:13:14,1060
5f4f8db38647e304a863fdfc,ma_choice_v2_pilot2,"",15,Freshly Painted Exterior,2,63,No,No,3273,5458,2021-10-24 20:13:23,1061
5f4f8db38647e304a863fdfc,ma_choice_v2_pilot2,"",3,Proximity to Cafes/Restaurants,2,32,25 min,15 min,4834,7416,2021-10-24 20:13:35,1062
5f4f8db38647e304a863fdfc,ma_choice_v2_pilot2,"",5,Noise Pollution,2,13,Moderate,High,3032,6654,2021-10-24 20:13:45,1063
5f4f8db38647e304a863fdfc,ma_choice_v2_pilot2,"",13,Climate of Area,2,76,Very Bad,Very Good,2702,2852,2021-10-24 20:13:50,1064
5f4f8db38647e304a863fdfc,ma_choice_v2_pilot2,"",9,Washer/Dryer,2,32,No,No,4003,7344,2021-10-24 20:14:02,1065
5f4f8db38647e304a863fdfc,ma_choice_v2_pilot2,"",7,Amount of Natural Light,2,61,Very Little,A Lot,2952,3445,2021-10-24 20:14:08,1066
5f4f8db38647e304a863fdfc,ma_choice_v2_pilot2,"",8,Age of Building,2,40,Old,New,3551,4145,2021-10-24 20:14:16,1067
5f4f8db38647e304a863fdfc,ma_choice_v2_pilot2,"",16,Size of Home,2,66,400 square feet,1200 square feet,5622,5723,2021-10-24 20:14:27,1068
5f4f8db38647e304a863fdfc,ma_choice_v2_pilot2,"",14,Hardwood Floors,2,27,No,No,2125,2852,2021-10-24 20:14:32,1069
5f4f8db38647e304a863fdfc,ma_choice_v2_pilot2,"",0,Number of Bedrooms,2,64,1 bdrm,5 bdrm,3472,2834,2021-10-24 20:14:39,1070
5f4f8db38647e304a863fdfc,ma_choice_v2_pilot2,"",1,Size of Garage,2,38,None,Large,2745,3660,2021-10-24 20:14:45,1071
5f4f8db38647e304a863fdfc,ma_choice_v2_pilot2,"",2,Proximity to Parks,2,24,25 min,15 min,8273,4232,2021-10-24 20:14:58,1072
5f4f8db38647e304a863fdfc,ma_choice_v2_pilot2,"",6,Reputation of Closest School,2,79,Very Bad,Very Good,2626,2395,2021-10-24 20:15:03,1073
5f4f8db38647e304a863fdfc,ma_choice_v2_pilot2,"",12,Central AC,2,50,No,No,1926,1962,2021-10-24 20:15:06,1074
5f4f8db38647e304a863fdfc,ma_choice_v2_pilot2,"",11,Fireplace,2,30,No,No,3698,1527,2021-10-24 20:15:12,1075
5f4f8db38647e304a863fdfc,ma_choice_v2_pilot2,"",10,Size of Yard,2,54,None,Very Large,2073,3199,2021-10-24 20:15:17,1076
5cdf1cb57f65ee001a9856fa,ma_choice_v2_pilot2,"",8,Age of Building,2,12,Old,New,4587,8855,2021-10-24 20:15:51,1077
5cdf1cb57f65ee001a9856fa,ma_choice_v2_pilot2,"",7,Amount of Natural Light,2,88,Very Little,A Lot,6323,6008,2021-10-24 20:16:03,1078
5cdf1cb57f65ee001a9856fa,ma_choice_v2_pilot2,"",6,Reputation of Closest School,2,1,Very Good,Very Bad,5852,7114,2021-10-24 20:16:16,1079
5cdf1cb57f65ee001a9856fa,ma_choice_v2_pilot2,"",12,Central AC,2,94,No,Yes,5063,4543,2021-10-24 20:16:26,1080
5cdf1cb57f65ee001a9856fa,ma_choice_v2_pilot2,"",9,Washer/Dryer,2,99,No,Yes,6995,4978,2021-10-24 20:16:38,1081
5cdf1cb57f65ee001a9856fa,ma_choice_v2_pilot2,"",10,Size of Yard,2,100,None,Very Large,3558,5225,2021-10-24 20:16:46,1082
5cdf1cb57f65ee001a9856fa,ma_choice_v2_pilot2,"",5,Noise Pollution,2,25,Very High,Very Low,5014,5202,2021-10-24 20:16:57,1083
5b89da88bca3400001fa8809,ma_choice_v2_pilot2,"",6,Reputation of Closest School,2,1,Very Bad,Moderate,5732,342490,2021-10-24 20:17:02,1084
5cdf1cb57f65ee001a9856fa,ma_choice_v2_pilot2,"",0,Number of Bedrooms,2,100,1 bdrm,5 bdrm,5160,5932,2021-10-24 20:17:08,1085
5cdf1cb57f65ee001a9856fa,ma_choice_v2_pilot2,"",1,Size of Garage,2,88,None,Very Large,5356,3171,2021-10-24 20:17:16,1086
5cdf1cb57f65ee001a9856fa,ma_choice_v2_pilot2,"",15,Freshly Painted Exterior,2,5,No,Yes,4468,6754,2021-10-24 20:17:27,1087
5cdf1cb57f65ee001a9856fa,ma_choice_v2_pilot2,"",13,Climate of Area,2,51,Very Bad,Very Good,4987,4097,2021-10-24 20:17:37,1088
5cdf1cb57f65ee001a9856fa,ma_choice_v2_pilot2,"",14,Hardwood Floors,2,74,No,Yes,4757,2452,2021-10-24 20:17:44,1089
5cdf1cb57f65ee001a9856fa,ma_choice_v2_pilot2,"",2,Proximity to Parks,2,74,25 min,5 min,4197,6521,2021-10-24 20:17:54,1090
5cdf1cb57f65ee001a9856fa,ma_choice_v2_pilot2,"",4,Proximity to Waterfront/Beaches,2,86,90 min,10 min,4101,3794,2021-10-24 20:18:02,1091
5cdf1cb57f65ee001a9856fa,ma_choice_v2_pilot2,"",16,Size of Home,2,100,400 square feet,2000 square feet,3933,3877,2021-10-24 20:18:10,1092
5cdf1cb57f65ee001a9856fa,ma_choice_v2_pilot2,"",11,Fireplace,2,88,No,Yes,4755,2669,2021-10-24 20:18:18,1093
5cdf1cb57f65ee001a9856fa,ma_choice_v2_pilot2,"",3,Proximity to Cafes/Restaurants,2,76,25 min,5 min,4777,3530,2021-10-24 20:18:26,1094
5daf1d3f8d1f230014c71e21,ma_choice_v2_pilot2,"",4,Proximity to Waterfront/Beaches,1,0,90 min,10 min,3707,21967,2021-10-24 20:34:59,1095
5daf1d3f8d1f230014c71e21,ma_choice_v2_pilot2,"",12,Central AC,1,1,No,Yes,5858,16362,2021-10-24 20:35:21,1096
5daf1d3f8d1f230014c71e21,ma_choice_v2_pilot2,"",14,Hardwood Floors,1,0,Yes,No,4820,13905,2021-10-24 20:35:40,1097
5daf1d3f8d1f230014c71e21,ma_choice_v2_pilot2,"",5,Noise Pollution,1,1,High,Very Low,14451,13477,2021-10-24 20:36:07,1098
5daf1d3f8d1f230014c71e21,ma_choice_v2_pilot2,"",7,Amount of Natural Light,1,0,A Moderate Amount,A Moderate Amount,5034,7056,2021-10-24 20:36:20,1099
5daf1d3f8d1f230014c71e21,ma_choice_v2_pilot2,"",15,Freshly Painted Exterior,1,0,No,Yes,3584,10182,2021-10-24 20:36:33,1100
5daf1d3f8d1f230014c71e21,ma_choice_v2_pilot2,"",1,Size of Garage,1,0,Medium,Large,3759,6477,2021-10-24 20:36:44,1101
5daf1d3f8d1f230014c71e21,ma_choice_v2_pilot2,"",6,Reputation of Closest School,1,1,Moderate,Very Good,5044,9777,2021-10-24 20:36:58,1102
5daf1d3f8d1f230014c71e21,ma_choice_v2_pilot2,"",11,Fireplace,1,1,Yes,Yes,4819,34942,2021-10-24 20:37:38,1103
5daf1d3f8d1f230014c71e21,ma_choice_v2_pilot2,"",9,Washer/Dryer,1,1,Yes,Yes,4540,4376,2021-10-24 20:37:47,1104
5daf1d3f8d1f230014c71e21,ma_choice_v2_pilot2,"",3,Proximity to Cafes/Restaurants,1,0,25 min,15 min,3542,10718,2021-10-24 20:38:01,1105
5daf1d3f8d1f230014c71e21,ma_choice_v2_pilot2,"",10,Size of Yard,1,0,Medium,Medium,11750,5326,2021-10-24 20:38:18,1106
5daf1d3f8d1f230014c71e21,ma_choice_v2_pilot2,"",2,Proximity to Parks,1,1,15 min,5 min,4736,76240,2021-10-24 20:39:39,1107
5daf1d3f8d1f230014c71e21,ma_choice_v2_pilot2,"",13,Climate of Area,1,1,Moderate,Very Good,4196,8551,2021-10-24 20:39:53,1108
5daf1d3f8d1f230014c71e21,ma_choice_v2_pilot2,"",0,Number of Bedrooms,1,1,3 bdrm,5 bdrm,4330,5640,2021-10-24 20:40:02,1109
5daf1d3f8d1f230014c71e21,ma_choice_v2_pilot2,"",8,Age of Building,1,0,Old,New,4275,5327,2021-10-24 20:40:12,1110
5daf1d3f8d1f230014c71e21,ma_choice_v2_pilot2,"",16,Size of Home,1,1,1200 square feet,2000 square feet,10288,6184,2021-10-24 20:40:28,1111
5d70826012d076001680fbb7,ma_choice_v2_pilot2,"",4,Proximity to Waterfront/Beaches,2,88,90 min,10 min,7590,9474,2021-10-24 20:46:03,1112
5d70826012d076001680fbb7,ma_choice_v2_pilot2,"",15,Freshly Painted Exterior,2,2,No,Yes,5358,10879,2021-10-24 20:46:19,1113
5d70826012d076001680fbb7,ma_choice_v2_pilot2,"",13,Climate of Area,2,38,Very Bad,Very Good,4350,5500,2021-10-24 20:46:29,1114
5d70826012d076001680fbb7,ma_choice_v2_pilot2,"",11,Fireplace,2,38,No,Yes,3945,4413,2021-10-24 20:46:37,1115
5d70826012d076001680fbb7,ma_choice_v2_pilot2,"",3,Proximity to Cafes/Restaurants,2,75,25 min,5 min,4812,6468,2021-10-24 20:46:48,1116
5d70826012d076001680fbb7,ma_choice_v2_pilot2,"",16,Size of Home,2,50,400 square feet,2000 square feet,10235,4951,2021-10-24 20:47:04,1117
5d70826012d076001680fbb7,ma_choice_v2_pilot2,"",0,Number of Bedrooms,2,25,1 bdrm,3 bdrm,3716,8946,2021-10-24 20:47:16,1118
5d70826012d076001680fbb7,ma_choice_v2_pilot2,"",7,Amount of Natural Light,2,37,Very Little,A Moderate Amount,4010,4931,2021-10-24 20:47:25,1119
5d70826012d076001680fbb7,ma_choice_v2_pilot2,"",14,Hardwood Floors,2,88,No,Yes,4454,4567,2021-10-24 20:47:34,1120
5d70826012d076001680fbb7,ma_choice_v2_pilot2,"",12,Central AC,2,76,No,Yes,3080,3434,2021-10-24 20:47:41,1121
5d70826012d076001680fbb7,ma_choice_v2_pilot2,"",2,Proximity to Parks,2,63,25 min,5 min,3951,4748,2021-10-24 20:47:50,1122
5d70826012d076001680fbb7,ma_choice_v2_pilot2,"",5,Noise Pollution,2,49,Very High,Very Low,4455,5829,2021-10-24 20:48:00,1123
5d70826012d076001680fbb7,ma_choice_v2_pilot2,"",6,Reputation of Closest School,2,3,Very Bad,Very Good,3718,8133,2021-10-24 20:48:12,1124
5d70826012d076001680fbb7,ma_choice_v2_pilot2,"",1,Size of Garage,2,13,None,Medium,3987,10113,2021-10-24 20:48:26,1125
5d70826012d076001680fbb7,ma_choice_v2_pilot2,"",8,Age of Building,2,62,New,Old,4383,4584,2021-10-24 20:48:35,1126
5d70826012d076001680fbb7,ma_choice_v2_pilot2,"",9,Washer/Dryer,2,100,No,Yes,3323,3896,2021-10-24 20:48:42,1127
5d70826012d076001680fbb7,ma_choice_v2_pilot2,"",10,Size of Yard,2,25,Very Large,Small,4090,6284,2021-10-24 20:48:52,1128
5c89b77c65b4d70001b40ac3,ma_choice_v2_pilot2,"",10,Size of Yard,2,25,Small,Large,3876,7047,2021-10-24 20:56:57,1129
5c89b77c65b4d70001b40ac3,ma_choice_v2_pilot2,"",15,Freshly Painted Exterior,2,0,No,Yes,2518,9554,2021-10-24 20:57:09,1130
5c89b77c65b4d70001b40ac3,ma_choice_v2_pilot2,"",7,Amount of Natural Light,2,63,Very Little,A Moderate Amount,3960,6173,2021-10-24 20:57:19,1131
5c89b77c65b4d70001b40ac3,ma_choice_v2_pilot2,"",16,Size of Home,2,37,1200 square feet,1200 square feet,4620,4611,2021-10-24 20:57:28,1132
5c89b77c65b4d70001b40ac3,ma_choice_v2_pilot2,"",9,Washer/Dryer,2,25,Yes,Yes,5948,3935,2021-10-24 20:57:38,1133
5c89b77c65b4d70001b40ac3,ma_choice_v2_pilot2,"",2,Proximity to Parks,2,76,20 min,10 min,2714,14183,2021-10-24 20:57:55,1134
5c89b77c65b4d70001b40ac3,ma_choice_v2_pilot2,"",6,Reputation of Closest School,2,49,Bad,Good,2543,2767,2021-10-24 20:58:00,1135
5c89b77c65b4d70001b40ac3,ma_choice_v2_pilot2,"",1,Size of Garage,2,1,None,None,2258,3194,2021-10-24 20:58:06,1136
5c89b77c65b4d70001b40ac3,ma_choice_v2_pilot2,"",12,Central AC,2,46,Yes,Yes,3371,1850,2021-10-24 20:58:11,1137
5c89b77c65b4d70001b40ac3,ma_choice_v2_pilot2,"",11,Fireplace,2,2,No,Yes,2615,2259,2021-10-24 20:58:16,1138
5c89b77c65b4d70001b40ac3,ma_choice_v2_pilot2,"",13,Climate of Area,2,78,Moderate,Very Good,2240,3171,2021-10-24 20:58:21,1139
5c89b77c65b4d70001b40ac3,ma_choice_v2_pilot2,"",14,Hardwood Floors,2,17,Yes,Yes,4669,3999,2021-10-24 20:58:30,1140
5c89b77c65b4d70001b40ac3,ma_choice_v2_pilot2,"",4,Proximity to Waterfront/Beaches,2,33,70 min,10 min,2254,5409,2021-10-24 20:58:38,1141
5c89b77c65b4d70001b40ac3,ma_choice_v2_pilot2,"",3,Proximity to Cafes/Restaurants,2,78,15 min,10 min,2631,3999,2021-10-24 20:58:44,1142
5c89b77c65b4d70001b40ac3,ma_choice_v2_pilot2,"",8,Age of Building,2,59,Medium,New,2534,3251,2021-10-24 20:58:50,1143
5c89b77c65b4d70001b40ac3,ma_choice_v2_pilot2,"",5,Noise Pollution,2,77,Moderate,Very Low,3824,4434,2021-10-24 20:58:58,1144
5c89b77c65b4d70001b40ac3,ma_choice_v2_pilot2,"",0,Number of Bedrooms,2,23,1 bdrm,3 bdrm,3220,3048,2021-10-24 20:59:04,1145
5da0d9012a275000127cf814,ma_choice_v2_pilot2,"",1,Size of Garage,2,12,None,Very Large,7875,24239,2021-10-24 21:05:59,1146
5da0d9012a275000127cf814,ma_choice_v2_pilot2,"",6,Reputation of Closest School,2,88,Very Bad,Very Good,11679,7126,2021-10-24 21:06:18,1147
5da0d9012a275000127cf814,ma_choice_v2_pilot2,"",14,Hardwood Floors,2,50,No,Yes,6565,8092,2021-10-24 21:06:33,1148
5da0d9012a275000127cf814,ma_choice_v2_pilot2,"",10,Size of Yard,2,62,None,Large,5879,10507,2021-10-24 21:06:49,1149
5da0d9012a275000127cf814,ma_choice_v2_pilot2,"",9,Washer/Dryer,2,37,No,Yes,8825,13776,2021-10-24 21:07:12,1150
5da0d9012a275000127cf814,ma_choice_v2_pilot2,"",4,Proximity to Waterfront/Beaches,2,50,90 min,30 min,6394,8439,2021-10-24 21:07:27,1151
5da0d9012a275000127cf814,ma_choice_v2_pilot2,"",13,Climate of Area,2,88,Very Bad,Very Good,11762,5447,2021-10-24 21:07:44,1152
5da0d9012a275000127cf814,ma_choice_v2_pilot2,"",2,Proximity to Parks,2,55,25 min,5 min,4666,5326,2021-10-24 21:07:54,1153
5da0d9012a275000127cf814,ma_choice_v2_pilot2,"",8,Age of Building,2,54,New,Medium,7392,14666,2021-10-24 21:08:16,1154
5da0d9012a275000127cf814,ma_choice_v2_pilot2,"",15,Freshly Painted Exterior,2,45,No,Yes,6989,4787,2021-10-24 21:08:28,1155
5da0d9012a275000127cf814,ma_choice_v2_pilot2,"",3,Proximity to Cafes/Restaurants,2,54,25 min,5 min,6741,7342,2021-10-24 21:08:42,1156
5da0d9012a275000127cf814,ma_choice_v2_pilot2,"",12,Central AC,2,81,No,Yes,5450,6474,2021-10-24 21:08:54,1157
5da0d9012a275000127cf814,ma_choice_v2_pilot2,"",16,Size of Home,2,94,400 square feet,2000 square feet,10414,7375,2021-10-24 21:09:11,1158
5da0d9012a275000127cf814,ma_choice_v2_pilot2,"",0,Number of Bedrooms,2,92,1 bdrm,3 bdrm,5833,7479,2021-10-24 21:09:25,1159
5da0d9012a275000127cf814,ma_choice_v2_pilot2,"",7,Amount of Natural Light,2,88,Very Little,A Lot,6830,4868,2021-10-24 21:09:36,1160
5da0d9012a275000127cf814,ma_choice_v2_pilot2,"",5,Noise Pollution,2,98,Very High,Very Low,7986,6924,2021-10-24 21:09:51,1161
5da0d9012a275000127cf814,ma_choice_v2_pilot2,"",11,Fireplace,2,50,No,Yes,4520,4143,2021-10-24 21:10:00,1162
5e07b64554ff2311819e6a02,ma_choice_v2_pilot2,"",9,Washer/Dryer,2,24,No,Yes,5857,23146,2021-10-24 21:20:46,1163
5e07b64554ff2311819e6a02,ma_choice_v2_pilot2,"",11,Fireplace,2,0,No,No,7608,5158,2021-10-24 21:20:59,1164
5e07b64554ff2311819e6a02,ma_choice_v2_pilot2,"",1,Size of Garage,2,12,Small,Medium,6070,11245,2021-10-24 21:21:16,1165
5e07b64554ff2311819e6a02,ma_choice_v2_pilot2,"",5,Noise Pollution,2,38,Very High,Very Low,5523,21309,2021-10-24 21:21:44,1166
5e07b64554ff2311819e6a02,ma_choice_v2_pilot2,"",14,Hardwood Floors,2,75,No,Yes,6159,9081,2021-10-24 21:21:59,1167
5e07b64554ff2311819e6a02,ma_choice_v2_pilot2,"",16,Size of Home,2,50,400 square feet,1200 square feet,8614,6198,2021-10-24 21:22:14,1168
5e07b64554ff2311819e6a02,ma_choice_v2_pilot2,"",10,Size of Yard,2,37,None,Small,4180,5017,2021-10-24 21:22:22,1169
5e07b64554ff2311819e6a02,ma_choice_v2_pilot2,"",7,Amount of Natural Light,2,0,Very Little,A Little,5856,6386,2021-10-24 21:22:35,1170
5e07b64554ff2311819e6a02,ma_choice_v2_pilot2,"",3,Proximity to Cafes/Restaurants,2,13,25 min,15 min,6070,8617,2021-10-24 21:22:50,1171
5e84765c7206730182a6f738,ma_choice_v2_pilot2,"",0,Number of Bedrooms,1,0,1 bdrm,5 bdrm,4462,7806,2021-10-24 21:23:08,1172
5e07b64554ff2311819e6a02,ma_choice_v2_pilot2,"",2,Proximity to Parks,2,52,25 min,5 min,16428,5574,2021-10-24 21:23:12,1173
5e84765c7206730182a6f738,ma_choice_v2_pilot2,"",10,Size of Yard,1,0,None,Medium,6228,8740,2021-10-24 21:23:23,1174
5e84765c7206730182a6f738,ma_choice_v2_pilot2,"",4,Proximity to Waterfront/Beaches,1,0,90 min,10 min,10151,6485,2021-10-24 21:23:39,1175
5e07b64554ff2311819e6a02,ma_choice_v2_pilot2,"",15,Freshly Painted Exterior,2,0,No,Yes,3724,32545,2021-10-24 21:23:48,1176
5e84765c7206730182a6f738,ma_choice_v2_pilot2,"",12,Central AC,1,0,No,Yes,4054,6203,2021-10-24 21:23:49,1177
5e84765c7206730182a6f738,ma_choice_v2_pilot2,"",8,Age of Building,1,0,Old,New,4348,6024,2021-10-24 21:24:00,1178
5e07b64554ff2311819e6a02,ma_choice_v2_pilot2,"",8,Age of Building,2,0,Old,New,9553,7093,2021-10-24 21:24:05,1179
5e84765c7206730182a6f738,ma_choice_v2_pilot2,"",9,Washer/Dryer,1,0,No,Yes,6937,10055,2021-10-24 21:24:17,1180
5e84765c7206730182a6f738,ma_choice_v2_pilot2,"",16,Size of Home,1,0,400 square feet,2000 square feet,4904,6430,2021-10-24 21:24:28,1181
5e07b64554ff2311819e6a02,ma_choice_v2_pilot2,"",13,Climate of Area,2,87,Very Bad,Very Good,26467,5156,2021-10-24 21:24:36,1182
5e84765c7206730182a6f738,ma_choice_v2_pilot2,"",1,Size of Garage,1,1,None,Very Large,7541,7209,2021-10-24 21:24:43,1183
5e07b64554ff2311819e6a02,ma_choice_v2_pilot2,"",6,Reputation of Closest School,2,87,Very Bad,Good,3793,5117,2021-10-24 21:24:45,1184
5e84765c7206730182a6f738,ma_choice_v2_pilot2,"",2,Proximity to Parks,1,0,25 min,5 min,3754,6459,2021-10-24 21:24:53,1185
5e07b64554ff2311819e6a02,ma_choice_v2_pilot2,"",0,Number of Bedrooms,2,100,1 bdrm,3 bdrm,3618,4831,2021-10-24 21:24:54,1186
5e84765c7206730182a6f738,ma_choice_v2_pilot2,"",7,Amount of Natural Light,1,1,Very Little,A Lot,3856,10563,2021-10-24 21:25:08,1187
5e07b64554ff2311819e6a02,ma_choice_v2_pilot2,"",12,Central AC,2,49,No,Yes,10194,7957,2021-10-24 21:25:12,1188
5e84765c7206730182a6f738,ma_choice_v2_pilot2,"",15,Freshly Painted Exterior,1,0,No,Yes,4131,4721,2021-10-24 21:25:16,1189
5e84765c7206730182a6f738,ma_choice_v2_pilot2,"",3,Proximity to Cafes/Restaurants,1,0,25 min,10 min,5142,7234,2021-10-24 21:25:29,1190
5e07b64554ff2311819e6a02,ma_choice_v2_pilot2,"",4,Proximity to Waterfront/Beaches,2,14,90 min,30 min,18941,5278,2021-10-24 21:25:36,1191
5e84765c7206730182a6f738,ma_choice_v2_pilot2,"",11,Fireplace,1,0,No,Yes,3688,19446,2021-10-24 21:25:52,1192
5e84765c7206730182a6f738,ma_choice_v2_pilot2,"",6,Reputation of Closest School,1,0,Very Bad,Very Good,6443,5960,2021-10-24 21:26:04,1193
5e84765c7206730182a6f738,ma_choice_v2_pilot2,"",14,Hardwood Floors,1,0,No,Yes,6827,11522,2021-10-24 21:26:23,1194
5e84765c7206730182a6f738,ma_choice_v2_pilot2,"",13,Climate of Area,1,1,Very Bad,Very Good,4156,5304,2021-10-24 21:26:32,1195
5e84765c7206730182a6f738,ma_choice_v2_pilot2,"",5,Noise Pollution,1,1,Very High,Very Low,6097,15109,2021-10-24 21:26:53,1196
5dd06a074ad3e2149c884661,ma_choice_v2_pilot2,"",10,Size of Yard,2,38,None,Medium,7269,12311,2021-10-24 21:32:23,1197
5e48d3d8b26b05361ff522f2,ma_choice_v2_pilot2,"",1,Size of Garage,2,0,None,None,7196,17461,2021-10-24 21:32:34,1198
5dd06a074ad3e2149c884661,ma_choice_v2_pilot2,"",15,Freshly Painted Exterior,2,12,No,Yes,6461,12451,2021-10-24 21:32:42,1199
5e48d3d8b26b05361ff522f2,ma_choice_v2_pilot2,"",13,Climate of Area,2,55,Very Bad,Very Good,5367,7512,2021-10-24 21:32:47,1200
5e48d3d8b26b05361ff522f2,ma_choice_v2_pilot2,"",6,Reputation of Closest School,2,51,Very Bad,Very Good,3547,4903,2021-10-24 21:32:56,1201
5dd06a074ad3e2149c884661,ma_choice_v2_pilot2,"",7,Amount of Natural Light,2,37,Very Little,A Moderate Amount,8023,9319,2021-10-24 21:32:59,1202
5dd06a074ad3e2149c884661,ma_choice_v2_pilot2,"",9,Washer/Dryer,2,88,No,Yes,5564,6175,2021-10-24 21:33:11,1203
5e48d3d8b26b05361ff522f2,ma_choice_v2_pilot2,"",7,Amount of Natural Light,2,60,Very Little,A Lot,3943,22747,2021-10-24 21:33:23,1204
5dd06a074ad3e2149c884661,ma_choice_v2_pilot2,"",1,Size of Garage,2,50,None,Large,5898,8382,2021-10-24 21:33:25,1205
5e48d3d8b26b05361ff522f2,ma_choice_v2_pilot2,"",16,Size of Home,2,0,400 square feet,2000 square feet,2958,5381,2021-10-24 21:33:31,1206
5e48d3d8b26b05361ff522f2,ma_choice_v2_pilot2,"",12,Central AC,2,100,No,Yes,3558,3979,2021-10-24 21:33:38,1207
5dd06a074ad3e2149c884661,ma_choice_v2_pilot2,"",16,Size of Home,2,75,400 square feet,1200 square feet,6696,8086,2021-10-24 21:33:40,1208
5dd06a074ad3e2149c884661,ma_choice_v2_pilot2,"",3,Proximity to Cafes/Restaurants,2,37,25 min,10 min,5932,11526,2021-10-24 21:33:58,1209
5d0013150a615c0001bae539,ma_choice_v2_pilot2,"",6,Reputation of Closest School,2,0,Very Bad,Good,4836,10027,2021-10-24 21:34:02,1210
5dd06a074ad3e2149c884661,ma_choice_v2_pilot2,"",4,Proximity to Waterfront/Beaches,2,10,90 min,10 min,6277,6475,2021-10-24 21:34:10,1211
5e48d3d8b26b05361ff522f2,ma_choice_v2_pilot2,"",2,Proximity to Parks,2,30,25 min,5 min,29034,7524,2021-10-24 21:34:15,1212
5d0013150a615c0001bae539,ma_choice_v2_pilot2,"",0,Number of Bedrooms,2,23,1 bdrm,3 bdrm,3585,12345,2021-10-24 21:34:18,1213
5dd06a074ad3e2149c884661,ma_choice_v2_pilot2,"",12,Central AC,2,89,No,Yes,5660,6792,2021-10-24 21:34:23,1214
5e48d3d8b26b05361ff522f2,ma_choice_v2_pilot2,"",4,Proximity to Waterfront/Beaches,2,0,90 min,10 min,3839,4829,2021-10-24 21:34:24,1215
5d0013150a615c0001bae539,ma_choice_v2_pilot2,"",7,Amount of Natural Light,2,68,Very Little,A Lot,3976,4281,2021-10-24 21:34:26,1216
5e48d3d8b26b05361ff522f2,ma_choice_v2_pilot2,"",3,Proximity to Cafes/Restaurants,2,0,25 min,5 min,3413,5576,2021-10-24 21:34:33,1217
5dd06a074ad3e2149c884661,ma_choice_v2_pilot2,"",8,Age of Building,2,37,Old,New,4913,7381,2021-10-24 21:34:35,1218
5d0013150a615c0001bae539,ma_choice_v2_pilot2,"",16,Size of Home,2,32,400 square feet,1200 square feet,3854,8427,2021-10-24 21:34:38,1219
5e48d3d8b26b05361ff522f2,ma_choice_v2_pilot2,"",15,Freshly Painted Exterior,2,0,No,Yes,2647,6089,2021-10-24 21:34:42,1220
5d0013150a615c0001bae539,ma_choice_v2_pilot2,"",9,Washer/Dryer,2,48,No,Yes,3795,3057,2021-10-24 21:34:45,1221
5dd06a074ad3e2149c884661,ma_choice_v2_pilot2,"",13,Climate of Area,2,51,Very Bad,Very Good,6627,7288,2021-10-24 21:34:49,1222
5e48d3d8b26b05361ff522f2,ma_choice_v2_pilot2,"",8,Age of Building,2,0,Old,New,2744,5073,2021-10-24 21:34:49,1223
5d0013150a615c0001bae539,ma_choice_v2_pilot2,"",4,Proximity to Waterfront/Beaches,2,50,90 min,10 min,2298,5795,2021-10-24 21:34:53,1224
5e48d3d8b26b05361ff522f2,ma_choice_v2_pilot2,"",5,Noise Pollution,2,100,Very High,Very Low,3640,4746,2021-10-24 21:34:58,1225
5dd06a074ad3e2149c884661,ma_choice_v2_pilot2,"",5,Noise Pollution,2,88,Very High,Very Low,5445,6619,2021-10-24 21:35:01,1226
5d0013150a615c0001bae539,ma_choice_v2_pilot2,"",5,Noise Pollution,2,60,Very High,Very Low,4245,10004,2021-10-24 21:35:07,1227
5dd06a074ad3e2149c884661,ma_choice_v2_pilot2,"",2,Proximity to Parks,2,37,25 min,5 min,5479,7057,2021-10-24 21:35:14,1228
5dd06a074ad3e2149c884661,ma_choice_v2_pilot2,"",6,Reputation of Closest School,2,50,Very Bad,Very Good,5163,6180,2021-10-24 21:35:25,1229
5dd06a074ad3e2149c884661,ma_choice_v2_pilot2,"",14,Hardwood Floors,2,13,No,Yes,4144,7899,2021-10-24 21:35:37,1230
5e48d3d8b26b05361ff522f2,ma_choice_v2_pilot2,"",11,Fireplace,2,0,No,No,2778,43516,2021-10-24 21:35:44,1231
5dd06a074ad3e2149c884661,ma_choice_v2_pilot2,"",0,Number of Bedrooms,2,62,1 bdrm,3 bdrm,7771,6347,2021-10-24 21:35:51,1232
5e48d3d8b26b05361ff522f2,ma_choice_v2_pilot2,"",14,Hardwood Floors,2,0,No,No,4386,5181,2021-10-24 21:35:54,1233
5dd06a074ad3e2149c884661,ma_choice_v2_pilot2,"",11,Fireplace,2,51,No,Yes,4648,4421,2021-10-24 21:36:01,1234
5e48d3d8b26b05361ff522f2,ma_choice_v2_pilot2,"",10,Size of Yard,2,0,None,None,3499,6280,2021-10-24 21:36:03,1235
5e48d3d8b26b05361ff522f2,ma_choice_v2_pilot2,"",0,Number of Bedrooms,2,0,1 bdrm,1 bdrm,2853,3831,2021-10-24 21:36:10,1236
5e48d3d8b26b05361ff522f2,ma_choice_v2_pilot2,"",9,Washer/Dryer,2,100,No,Yes,4426,4139,2021-10-24 21:36:19,1237
5d0013150a615c0001bae539,ma_choice_v2_pilot2,"",3,Proximity to Cafes/Restaurants,2,25,25 min,5 min,237211,6596,2021-10-24 21:39:11,1238
5d0013150a615c0001bae539,ma_choice_v2_pilot2,"",11,Fireplace,2,6,No,Yes,2558,3083,2021-10-24 21:39:17,1239
5d0013150a615c0001bae539,ma_choice_v2_pilot2,"",13,Climate of Area,2,20,Very Bad,Very Good,4935,3610,2021-10-24 21:39:25,1240
5d0013150a615c0001bae539,ma_choice_v2_pilot2,"",10,Size of Yard,2,17,None,Small,4835,6267,2021-10-24 21:39:36,1241
5d0013150a615c0001bae539,ma_choice_v2_pilot2,"",12,Central AC,2,98,No,Yes,5190,2909,2021-10-24 21:39:45,1242
5d0013150a615c0001bae539,ma_choice_v2_pilot2,"",8,Age of Building,2,24,Medium,Old,3879,6564,2021-10-24 21:39:55,1243
5d0013150a615c0001bae539,ma_choice_v2_pilot2,"",15,Freshly Painted Exterior,2,16,No,Yes,3101,4411,2021-10-24 21:40:03,1244
5d0013150a615c0001bae539,ma_choice_v2_pilot2,"",2,Proximity to Parks,2,28,25 min,5 min,2452,9669,2021-10-24 21:40:15,1245
5d0013150a615c0001bae539,ma_choice_v2_pilot2,"",14,Hardwood Floors,2,32,No,Yes,2329,2555,2021-10-24 21:40:20,1246
5d0013150a615c0001bae539,ma_choice_v2_pilot2,"",1,Size of Garage,2,27,None,Medium,3351,3454,2021-10-24 21:40:26,1247
5fef6eebbf7c822b2cff43e0,ma_choice_v2_pilot2,"",15,Freshly Painted Exterior,2,50,No,Yes,77558,22316,2021-10-24 21:48:15,1248
5fef6eebbf7c822b2cff43e0,ma_choice_v2_pilot2,"",11,Fireplace,2,25,No,Yes,11113,26991,2021-10-24 21:48:53,1249
5fef6eebbf7c822b2cff43e0,ma_choice_v2_pilot2,"",10,Size of Yard,2,25,None,Small,16780,25240,2021-10-24 21:49:35,1250
5fef6eebbf7c822b2cff43e0,ma_choice_v2_pilot2,"",8,Age of Building,2,50,Old,New,13998,11003,2021-10-24 21:50:00,1251
5f557058f325f713d247001c,ma_choice_v2_pilot2,"",1,Size of Garage,2,12,None,Medium,7516,12433,2021-10-24 21:50:10,1252
5fef6eebbf7c822b2cff43e0,ma_choice_v2_pilot2,"",12,Central AC,2,88,No,Yes,13349,10994,2021-10-24 21:50:24,1253
5f557058f325f713d247001c,ma_choice_v2_pilot2,"",9,Washer/Dryer,2,50,No,Yes,10462,6466,2021-10-24 21:50:27,1254
5f557058f325f713d247001c,ma_choice_v2_pilot2,"",0,Number of Bedrooms,2,75,1 bdrm,3 bdrm,7988,3457,2021-10-24 21:50:38,1255
5f557058f325f713d247001c,ma_choice_v2_pilot2,"",15,Freshly Painted Exterior,2,0,No,Yes,2780,3048,2021-10-24 21:50:44,1256
5f557058f325f713d247001c,ma_choice_v2_pilot2,"",13,Climate of Area,2,100,Very Bad,Very Good,2907,3070,2021-10-24 21:50:50,1257
5f557058f325f713d247001c,ma_choice_v2_pilot2,"",5,Noise Pollution,2,12,Very High,Very Low,4454,6353,2021-10-24 21:51:01,1258
5f557058f325f713d247001c,ma_choice_v2_pilot2,"",14,Hardwood Floors,2,49,No,Yes,3763,5129,2021-10-24 21:51:10,1259
5f557058f325f713d247001c,ma_choice_v2_pilot2,"",4,Proximity to Waterfront/Beaches,2,0,90 min,10 min,3848,3446,2021-10-24 21:51:17,1260
5f557058f325f713d247001c,ma_choice_v2_pilot2,"",8,Age of Building,2,100,Old,New,6325,3911,2021-10-24 21:51:27,1261
5f557058f325f713d247001c,ma_choice_v2_pilot2,"",12,Central AC,2,88,No,Yes,3187,3432,2021-10-24 21:51:34,1262
58cbd0a55d42920001414dd3,ma_choice_v2_pilot2,"",7,Amount of Natural Light,2,38,Very Little,A Lot,14237,21493,2021-10-24 21:51:37,1263
5f557058f325f713d247001c,ma_choice_v2_pilot2,"",11,Fireplace,2,25,No,Yes,7056,2978,2021-10-24 21:51:44,1264
5fef6eebbf7c822b2cff43e0,ma_choice_v2_pilot2,"",7,Amount of Natural Light,2,51,A Lot,Very Little,66266,19738,2021-10-24 21:51:50,1265
58cbd0a55d42920001414dd3,ma_choice_v2_pilot2,"",15,Freshly Painted Exterior,2,0,No,Yes,5273,9054,2021-10-24 21:51:52,1266
5f557058f325f713d247001c,ma_choice_v2_pilot2,"",7,Amount of Natural Light,2,88,Very Little,A Lot,13552,3405,2021-10-24 21:52:01,1267
5f557058f325f713d247001c,ma_choice_v2_pilot2,"",10,Size of Yard,2,37,None,Very Large,3340,4355,2021-10-24 21:52:09,1268
5f557058f325f713d247001c,ma_choice_v2_pilot2,"",3,Proximity to Cafes/Restaurants,2,0,25 min,5 min,2550,3422,2021-10-24 21:52:15,1269
58cbd0a55d42920001414dd3,ma_choice_v2_pilot2,"",6,Reputation of Closest School,2,0,Very Bad,Very Good,18450,8863,2021-10-24 21:52:19,1270
5f557058f325f713d247001c,ma_choice_v2_pilot2,"",2,Proximity to Parks,2,25,25 min,5 min,2989,2857,2021-10-24 21:52:21,1271
5fef6eebbf7c822b2cff43e0,ma_choice_v2_pilot2,"",14,Hardwood Floors,2,24,No,Yes,17081,15460,2021-10-24 21:52:23,1272
5f557058f325f713d247001c,ma_choice_v2_pilot2,"",6,Reputation of Closest School,2,0,Very Bad,Very Good,2877,5384,2021-10-24 21:52:29,1273
5f557058f325f713d247001c,ma_choice_v2_pilot2,"",16,Size of Home,2,0,400 square feet,2000 square feet,4422,2544,2021-10-24 21:52:36,1274
5fef6eebbf7c822b2cff43e0,ma_choice_v2_pilot2,"",0,Number of Bedrooms,2,75,1 bdrm,3 bdrm,9936,11009,2021-10-24 21:52:44,1275
58cbd0a55d42920001414dd3,ma_choice_v2_pilot2,"",2,Proximity to Parks,2,5,25 min,10 min,10841,19566,2021-10-24 21:52:49,1276
58cbd0a55d42920001414dd3,ma_choice_v2_pilot2,"",4,Proximity to Waterfront/Beaches,2,12,90 min,10 min,6442,10015,2021-10-24 21:53:06,1277
5fef6eebbf7c822b2cff43e0,ma_choice_v2_pilot2,"",3,Proximity to Cafes/Restaurants,2,62,25 min,5 min,10851,11659,2021-10-24 21:53:06,1278
58cbd0a55d42920001414dd3,ma_choice_v2_pilot2,"",12,Central AC,2,100,No,Yes,5561,12183,2021-10-24 21:53:24,1279
5fef6eebbf7c822b2cff43e0,ma_choice_v2_pilot2,"",4,Proximity to Waterfront/Beaches,2,24,90 min,30 min,9705,15082,2021-10-24 21:53:31,1280
58cbd0a55d42920001414dd3,ma_choice_v2_pilot2,"",16,Size of Home,2,63,400 square feet,2000 square feet,10898,12694,2021-10-24 21:53:47,1281
5fef6eebbf7c822b2cff43e0,ma_choice_v2_pilot2,"",5,Noise Pollution,2,88,Very High,Very Low,6767,12882,2021-10-24 21:53:51,1282
58cbd0a55d42920001414dd3,ma_choice_v2_pilot2,"",14,Hardwood Floors,2,25,No,Yes,5674,9070,2021-10-24 21:54:02,1283
5fef6eebbf7c822b2cff43e0,ma_choice_v2_pilot2,"",16,Size of Home,2,75,400 square feet,1200 square feet,9860,7946,2021-10-24 21:54:08,1284
5fef6eebbf7c822b2cff43e0,ma_choice_v2_pilot2,"",6,Reputation of Closest School,2,50,Very Bad,Good,5949,8636,2021-10-24 21:54:23,1285
58cbd0a55d42920001414dd3,ma_choice_v2_pilot2,"",8,Age of Building,2,12,Old,New,12786,8367,2021-10-24 21:54:23,1286
5fef6eebbf7c822b2cff43e0,ma_choice_v2_pilot2,"",9,Washer/Dryer,2,75,No,Yes,7354,6291,2021-10-24 21:54:37,1287
58cbd0a55d42920001414dd3,ma_choice_v2_pilot2,"",1,Size of Garage,2,50,None,Large,5762,20575,2021-10-24 21:54:49,1288
5fef6eebbf7c822b2cff43e0,ma_choice_v2_pilot2,"",2,Proximity to Parks,2,25,25 min,10 min,10159,8457,2021-10-24 21:54:55,1289
5fef6eebbf7c822b2cff43e0,ma_choice_v2_pilot2,"",13,Climate of Area,2,87,Very Bad,Very Good,4758,7045,2021-10-24 21:55:07,1290
58cbd0a55d42920001414dd3,ma_choice_v2_pilot2,"",3,Proximity to Cafes/Restaurants,2,0,25 min,5 min,9713,10103,2021-10-24 21:55:09,1291
5fef6eebbf7c822b2cff43e0,ma_choice_v2_pilot2,"",1,Size of Garage,2,25,None,Large,13208,12679,2021-10-24 21:55:33,1292
58cbd0a55d42920001414dd3,ma_choice_v2_pilot2,"",10,Size of Yard,2,50,None,Very Large,12490,14222,2021-10-24 21:55:36,1293
58cbd0a55d42920001414dd3,ma_choice_v2_pilot2,"",0,Number of Bedrooms,2,37,1 bdrm,5 bdrm,9546,13319,2021-10-24 21:55:59,1294
58cbd0a55d42920001414dd3,ma_choice_v2_pilot2,"",13,Climate of Area,2,75,Very Bad,Very Good,6553,9143,2021-10-24 21:56:15,1295
58cbd0a55d42920001414dd3,ma_choice_v2_pilot2,"",5,Noise Pollution,2,88,Very High,Very Low,9393,8462,2021-10-24 21:56:32,1296
5c548e119dd9950001aced19,ma_choice_v2_pilot2,"",14,Hardwood Floors,2,49,No,Yes,5471,11854,2021-10-24 21:56:40,1297
5c548e119dd9950001aced19,ma_choice_v2_pilot2,"",0,Number of Bedrooms,2,24,5 bdrm,1 bdrm,4894,5591,2021-10-24 21:56:50,1298
58cbd0a55d42920001414dd3,ma_choice_v2_pilot2,"",11,Fireplace,2,12,No,Yes,6713,12822,2021-10-24 21:56:52,1299
5c548e119dd9950001aced19,ma_choice_v2_pilot2,"",5,Noise Pollution,2,60,Very High,Very Low,5077,4288,2021-10-24 21:57:00,1300
5dd72efa82569a6d38e06854,ma_choice_v2_pilot2,"",12,Central AC,2,0,Yes,No,7324,15468,2021-10-24 21:57:08,1301
58cbd0a55d42920001414dd3,ma_choice_v2_pilot2,"",9,Washer/Dryer,2,63,No,Yes,7210,12030,2021-10-24 21:57:11,1302
5c548e119dd9950001aced19,ma_choice_v2_pilot2,"",3,Proximity to Cafes/Restaurants,2,74,25 min,5 min,5398,9655,2021-10-24 21:57:15,1303
5c548e119dd9950001aced19,ma_choice_v2_pilot2,"",11,Fireplace,2,60,No,Yes,5518,5542,2021-10-24 21:57:26,1304
5dd72efa82569a6d38e06854,ma_choice_v2_pilot2,"",8,Age of Building,2,0,Medium,Old,5250,19334,2021-10-24 21:57:32,1305
5c548e119dd9950001aced19,ma_choice_v2_pilot2,"",2,Proximity to Parks,2,86,25 min,5 min,6726,3791,2021-10-24 21:57:36,1306
5c548e119dd9950001aced19,ma_choice_v2_pilot2,"",12,Central AC,2,80,No,Yes,3638,9767,2021-10-24 21:57:50,1307
5dd72efa82569a6d38e06854,ma_choice_v2_pilot2,"",15,Freshly Painted Exterior,2,0,Yes,No,6662,11404,2021-10-24 21:57:51,1308
5dd72efa82569a6d38e06854,ma_choice_v2_pilot2,"",14,Hardwood Floors,2,82,No,Yes,8511,7359,2021-10-24 21:58:06,1309
5dd72efa82569a6d38e06854,ma_choice_v2_pilot2,"",16,Size of Home,2,50,400 square feet,1200 square feet,6462,9051,2021-10-24 21:58:22,1310
5dd72efa82569a6d38e06854,ma_choice_v2_pilot2,"",0,Number of Bedrooms,2,12,5 bdrm,3 bdrm,7295,6212,2021-10-24 21:58:35,1311
5c548e119dd9950001aced19,ma_choice_v2_pilot2,"",7,Amount of Natural Light,2,27,Very Little,A Moderate Amount,48428,4695,2021-10-24 21:58:43,1312
5dd72efa82569a6d38e06854,ma_choice_v2_pilot2,"",11,Fireplace,2,12,Yes,No,6509,7088,2021-10-24 21:58:49,1313
5c548e119dd9950001aced19,ma_choice_v2_pilot2,"",10,Size of Yard,2,3,Very Large,None,11046,4703,2021-10-24 21:58:59,1314
5dd72efa82569a6d38e06854,ma_choice_v2_pilot2,"",5,Noise Pollution,2,87,Very High,Very Low,4653,8106,2021-10-24 21:59:02,1315
5c548e119dd9950001aced19,ma_choice_v2_pilot2,"",9,Washer/Dryer,2,63,No,Yes,6574,5640,2021-10-24 21:59:11,1316
5dd72efa82569a6d38e06854,ma_choice_v2_pilot2,"",4,Proximity to Waterfront/Beaches,2,89,90 min,10 min,4115,5293,2021-10-24 21:59:11,1317
5dd72efa82569a6d38e06854,ma_choice_v2_pilot2,"",7,Amount of Natural Light,2,63,Very Little,A Moderate Amount,3722,9187,2021-10-24 21:59:24,1318
5dd72efa82569a6d38e06854,ma_choice_v2_pilot2,"",1,Size of Garage,2,52,None,Large,5188,5125,2021-10-24 21:59:34,1319
5c548e119dd9950001aced19,ma_choice_v2_pilot2,"",1,Size of Garage,2,11,None,Large,14518,14039,2021-10-24 21:59:40,1320
5dd72efa82569a6d38e06854,ma_choice_v2_pilot2,"",3,Proximity to Cafes/Restaurants,2,37,25 min,5 min,3346,5879,2021-10-24 21:59:44,1321
5c548e119dd9950001aced19,ma_choice_v2_pilot2,"",6,Reputation of Closest School,2,5,Very Bad,Good,4166,6359,2021-10-24 21:59:50,1322
5dd72efa82569a6d38e06854,ma_choice_v2_pilot2,"",13,Climate of Area,2,49,Very Bad,Good,4804,5421,2021-10-24 21:59:54,1323
5c548e119dd9950001aced19,ma_choice_v2_pilot2,"",16,Size of Home,2,24,400 square feet,1200 square feet,4134,5087,2021-10-24 21:59:59,1324
5dd72efa82569a6d38e06854,ma_choice_v2_pilot2,"",2,Proximity to Parks,2,38,25 min,10 min,3987,8161,2021-10-24 22:00:06,1325
5c548e119dd9950001aced19,ma_choice_v2_pilot2,"",4,Proximity to Waterfront/Beaches,2,83,90 min,30 min,4613,6159,2021-10-24 22:00:10,1326
6048622d518a190008dfbe38,ma_choice_v2_pilot2,"",16,Size of Home,2,64,400 square feet,2000 square feet,8254,9532,2021-10-24 22:00:10,1327
5dd72efa82569a6d38e06854,ma_choice_v2_pilot2,"",9,Washer/Dryer,2,87,No,Yes,4019,6434,2021-10-24 22:00:16,1328
5f2db9cc2858dd0d9f634581,ma_choice_v2_pilot2,"",14,Hardwood Floors,2,12,No,Yes,4962,7069,2021-10-24 22:00:18,1329
5c548e119dd9950001aced19,ma_choice_v2_pilot2,"",15,Freshly Painted Exterior,2,9,No,Yes,4950,4087,2021-10-24 22:00:19,1330
6048622d518a190008dfbe38,ma_choice_v2_pilot2,"",10,Size of Yard,2,26,None,Medium,3696,6245,2021-10-24 22:00:20,1331
5dd72efa82569a6d38e06854,ma_choice_v2_pilot2,"",6,Reputation of Closest School,2,0,Very Bad,Good,3242,9314,2021-10-24 22:00:29,1332
6048622d518a190008dfbe38,ma_choice_v2_pilot2,"",0,Number of Bedrooms,2,50,3 bdrm,5 bdrm,3320,5856,2021-10-24 22:00:29,1333
5f2db9cc2858dd0d9f634581,ma_choice_v2_pilot2,"",3,Proximity to Cafes/Restaurants,2,0,5 min,15 min,3054,8476,2021-10-24 22:00:29,1334
5c548e119dd9950001aced19,ma_choice_v2_pilot2,"",13,Climate of Area,2,77,Very Bad,Good,3894,6903,2021-10-24 22:00:30,1335
5c548e119dd9950001aced19,ma_choice_v2_pilot2,"",8,Age of Building,2,56,Old,New,3014,4527,2021-10-24 22:00:37,1336
5dd72efa82569a6d38e06854,ma_choice_v2_pilot2,"",10,Size of Yard,2,38,None,Large,5027,4157,2021-10-24 22:00:38,1337
6048622d518a190008dfbe38,ma_choice_v2_pilot2,"",3,Proximity to Cafes/Restaurants,2,73,25 min,5 min,3655,7800,2021-10-24 22:00:41,1338
5f2db9cc2858dd0d9f634581,ma_choice_v2_pilot2,"",16,Size of Home,2,50,400 square feet,1200 square feet,5213,8086,2021-10-24 22:00:43,1339
5d45e9143c5a360019b1bd3c,ma_choice_v2_pilot2,"",6,Reputation of Closest School,2,100,Very Bad,Very Good,7036,8598,2021-10-24 22:00:49,1340
6048622d518a190008dfbe38,ma_choice_v2_pilot2,"",6,Reputation of Closest School,2,87,Bad,Very Good,4160,6956,2021-10-24 22:00:52,1341
5f2db9cc2858dd0d9f634581,ma_choice_v2_pilot2,"",13,Climate of Area,2,63,Very Bad,Good,5525,4810,2021-10-24 22:00:53,1342
5f2db9cc2858dd0d9f634581,ma_choice_v2_pilot2,"",9,Washer/Dryer,2,76,No,Yes,3697,4400,2021-10-24 22:01:01,1343
5d45e9143c5a360019b1bd3c,ma_choice_v2_pilot2,"",12,Central AC,2,88,No,Yes,7436,6095,2021-10-24 22:01:02,1344
6048622d518a190008dfbe38,ma_choice_v2_pilot2,"",14,Hardwood Floors,2,13,No,Yes,2944,8597,2021-10-24 22:01:03,1345
5f2db9cc2858dd0d9f634581,ma_choice_v2_pilot2,"",15,Freshly Painted Exterior,2,0,No,Yes,3142,3873,2021-10-24 22:01:08,1346
6048622d518a190008dfbe38,ma_choice_v2_pilot2,"",11,Fireplace,2,3,No,No,3810,3159,2021-10-24 22:01:10,1347
5d45e9143c5a360019b1bd3c,ma_choice_v2_pilot2,"",15,Freshly Painted Exterior,2,0,No,Yes,8053,5944,2021-10-24 22:01:16,1348
6048622d518a190008dfbe38,ma_choice_v2_pilot2,"",13,Climate of Area,2,100,Very Bad,Very Good,2725,3812,2021-10-24 22:01:17,1349
5f2db9cc2858dd0d9f634581,ma_choice_v2_pilot2,"",5,Noise Pollution,2,75,Very High,Low,3938,4985,2021-10-24 22:01:17,1350
6048622d518a190008dfbe38,ma_choice_v2_pilot2,"",9,Washer/Dryer,2,100,No,Yes,3435,3470,2021-10-24 22:01:24,1351
5f2db9cc2858dd0d9f634581,ma_choice_v2_pilot2,"",2,Proximity to Parks,2,0,5 min,15 min,2886,5401,2021-10-24 22:01:25,1352
5d45e9143c5a360019b1bd3c,ma_choice_v2_pilot2,"",9,Washer/Dryer,2,49,No,Yes,5632,6145,2021-10-24 22:01:28,1353
5d5185e4cbc535001a298bcf,ma_choice_v2_pilot2,"",11,Fireplace,1,1,No,Yes,16714,46527,2021-10-24 22:01:28,1354
6048622d518a190008dfbe38,ma_choice_v2_pilot2,"",7,Amount of Natural Light,2,39,A Little,A Moderate Amount,2504,4025,2021-10-24 22:01:30,1355
5f2db9cc2858dd0d9f634581,ma_choice_v2_pilot2,"",0,Number of Bedrooms,2,25,5 bdrm,3 bdrm,4050,7207,2021-10-24 22:01:37,1356
6048622d518a190008dfbe38,ma_choice_v2_pilot2,"",8,Age of Building,2,75,Medium,New,4265,5218,2021-10-24 22:01:40,1357
5f2db9cc2858dd0d9f634581,ma_choice_v2_pilot2,"",11,Fireplace,2,38,No,Yes,5714,3157,2021-10-24 22:01:45,1358
5d45e9143c5a360019b1bd3c,ma_choice_v2_pilot2,"",3,Proximity to Cafes/Restaurants,2,13,25 min,5 min,5928,11425,2021-10-24 22:01:46,1359
6048622d518a190008dfbe38,ma_choice_v2_pilot2,"",1,Size of Garage,2,75,None,Large,4608,5707,2021-10-24 22:01:50,1360
5f2db9cc2858dd0d9f634581,ma_choice_v2_pilot2,"",6,Reputation of Closest School,2,100,Very Bad,Very Good,3089,4577,2021-10-24 22:01:53,1361
5d45e9143c5a360019b1bd3c,ma_choice_v2_pilot2,"",11,Fireplace,2,7,No,Yes,6931,4878,2021-10-24 22:01:57,1362
5f2db9cc2858dd0d9f634581,ma_choice_v2_pilot2,"",4,Proximity to Waterfront/Beaches,2,0,10 min,50 min,2455,3672,2021-10-24 22:01:59,1363
6048622d518a190008dfbe38,ma_choice_v2_pilot2,"",5,Noise Pollution,2,38,High,Low,3414,8144,2021-10-24 22:02:02,1364
6048622d518a190008dfbe38,ma_choice_v2_pilot2,"",15,Freshly Painted Exterior,2,28,No,Yes,2533,4508,2021-10-24 22:02:09,1365
5f2db9cc2858dd0d9f634581,ma_choice_v2_pilot2,"",7,Amount of Natural Light,2,25,A Lot,A Moderate Amount,3547,6637,2021-10-24 22:02:10,1366
5d45e9143c5a360019b1bd3c,ma_choice_v2_pilot2,"",4,Proximity to Waterfront/Beaches,2,8,90 min,10 min,6417,10202,2021-10-24 22:02:16,1367
5f2db9cc2858dd0d9f634581,ma_choice_v2_pilot2,"",8,Age of Building,2,13,Old,Medium,3053,3504,2021-10-24 22:02:17,1368
6048622d518a190008dfbe38,ma_choice_v2_pilot2,"",2,Proximity to Parks,2,15,15 min,10 min,2775,5056,2021-10-24 22:02:17,1369
5d5185e4cbc535001a298bcf,ma_choice_v2_pilot2,"",16,Size of Home,1,0,2000 square feet,1200 square feet,22360,29137,2021-10-24 22:02:20,1370
5f2db9cc2858dd0d9f634581,ma_choice_v2_pilot2,"",10,Size of Yard,2,75,None,Medium,3810,4186,2021-10-24 22:02:24,1371
5d45e9143c5a360019b1bd3c,ma_choice_v2_pilot2,"",13,Climate of Area,2,75,Very Bad,Very Good,4917,6166,2021-10-24 22:02:25,1372
6048622d518a190008dfbe38,ma_choice_v2_pilot2,"",4,Proximity to Waterfront/Beaches,2,38,50 min,30 min,3214,5390,2021-10-24 22:02:25,1373
6048622d518a190008dfbe38,ma_choice_v2_pilot2,"",12,Central AC,2,100,No,Yes,2632,2838,2021-10-24 22:02:31,1374
5f2db9cc2858dd0d9f634581,ma_choice_v2_pilot2,"",1,Size of Garage,2,62,None,Medium,3584,3441,2021-10-24 22:02:31,1375
5f2db9cc2858dd0d9f634581,ma_choice_v2_pilot2,"",12,Central AC,2,100,No,Yes,2732,2797,2021-10-24 22:02:37,1376
5d45e9143c5a360019b1bd3c,ma_choice_v2_pilot2,"",10,Size of Yard,2,56,None,Very Large,6858,6941,2021-10-24 22:02:39,1377
5aabd17644adc700014c8621,ma_choice_v2_pilot2,"",11,Fireplace,2,25,No,Yes,4251,12159,2021-10-24 22:02:49,1378
5d4a1c04bddc8a001532cb06,ma_choice_v2_pilot2,"",12,Central AC,2,30,Yes,Yes,3131,13831,2021-10-24 22:02:56,1379
5d45e9143c5a360019b1bd3c,ma_choice_v2_pilot2,"",1,Size of Garage,2,0,None,Small,6224,12255,2021-10-24 22:02:58,1380
5aabd17644adc700014c8621,ma_choice_v2_pilot2,"",5,Noise Pollution,2,50,Very High,Very Low,5470,8356,2021-10-24 22:03:01,1381
5d5185e4cbc535001a298bcf,ma_choice_v2_pilot2,"",14,Hardwood Floors,1,1,No,Yes,7389,35100,2021-10-24 22:03:03,1382
5d4a1c04bddc8a001532cb06,ma_choice_v2_pilot2,"",6,Reputation of Closest School,2,1,Moderate,Moderate,4187,6187,2021-10-24 22:03:05,1383
5d45e9143c5a360019b1bd3c,ma_choice_v2_pilot2,"",5,Noise Pollution,2,83,Very High,Very Low,6487,6098,2021-10-24 22:03:10,1384
5aabd17644adc700014c8621,ma_choice_v2_pilot2,"",3,Proximity to Cafes/Restaurants,2,62,25 min,5 min,5267,5662,2021-10-24 22:03:11,1385
5d4a1c04bddc8a001532cb06,ma_choice_v2_pilot2,"",9,Washer/Dryer,2,42,No,Yes,5165,5948,2021-10-24 22:03:16,1386
5aabd17644adc700014c8621,ma_choice_v2_pilot2,"",0,Number of Bedrooms,2,74,1 bdrm,5 bdrm,4921,4617,2021-10-24 22:03:21,1387
5d45e9143c5a360019b1bd3c,ma_choice_v2_pilot2,"",8,Age of Building,2,50,Old,New,5263,6228,2021-10-24 22:03:22,1388
5d4a1c04bddc8a001532cb06,ma_choice_v2_pilot2,"",4,Proximity to Waterfront/Beaches,2,2,50 min,30 min,3228,5118,2021-10-24 22:03:25,1389
5aabd17644adc700014c8621,ma_choice_v2_pilot2,"",16,Size of Home,2,75,400 square feet,2000 square feet,3897,4653,2021-10-24 22:03:30,1390
5d4a1c04bddc8a001532cb06,ma_choice_v2_pilot2,"",1,Size of Garage,2,27,Small,Large,3148,6094,2021-10-24 22:03:34,1391
5d45e9143c5a360019b1bd3c,ma_choice_v2_pilot2,"",7,Amount of Natural Light,2,54,Very Little,A Lot,8257,6058,2021-10-24 22:03:36,1392
5aabd17644adc700014c8621,ma_choice_v2_pilot2,"",14,Hardwood Floors,2,51,No,Yes,3914,3360,2021-10-24 22:03:37,1393
5d5185e4cbc535001a298bcf,ma_choice_v2_pilot2,"",10,Size of Yard,1,1,Very Large,Small,11566,26102,2021-10-24 22:03:40,1394
5d4a1c04bddc8a001532cb06,ma_choice_v2_pilot2,"",14,Hardwood Floors,2,63,Yes,Yes,3195,3054,2021-10-24 22:03:40,1395
5aabd17644adc700014c8621,ma_choice_v2_pilot2,"",10,Size of Yard,2,73,None,Very Large,4614,4524,2021-10-24 22:03:46,1396
5d4a1c04bddc8a001532cb06,ma_choice_v2_pilot2,"",7,Amount of Natural Light,2,49,A Little,A Lot,2317,4317,2021-10-24 22:03:47,1397
5d45e9143c5a360019b1bd3c,ma_choice_v2_pilot2,"",16,Size of Home,2,62,400 square feet,2000 square feet,8308,7140,2021-10-24 22:03:51,1398
5d4a1c04bddc8a001532cb06,ma_choice_v2_pilot2,"",15,Freshly Painted Exterior,2,2,No,No,2846,3534,2021-10-24 22:03:53,1399
5aabd17644adc700014c8621,ma_choice_v2_pilot2,"",7,Amount of Natural Light,2,50,Very Little,A Lot,5377,4884,2021-10-24 22:03:56,1400
5d4a1c04bddc8a001532cb06,ma_choice_v2_pilot2,"",13,Climate of Area,2,80,Good,Very Good,4027,2782,2021-10-24 22:04:00,1401
5d45e9143c5a360019b1bd3c,ma_choice_v2_pilot2,"",14,Hardwood Floors,2,24,No,Yes,4342,5434,2021-10-24 22:04:01,1402
5d5185e4cbc535001a298bcf,ma_choice_v2_pilot2,"",5,Noise Pollution,1,1,Very High,Very Low,7536,16014,2021-10-24 22:04:04,1403
5aabd17644adc700014c8621,ma_choice_v2_pilot2,"",9,Washer/Dryer,2,26,No,Yes,4272,3868,2021-10-24 22:04:04,1404
5d4a1c04bddc8a001532cb06,ma_choice_v2_pilot2,"",5,Noise Pollution,2,75,Low,Very Low,5628,5660,2021-10-24 22:04:11,1405
5d45e9143c5a360019b1bd3c,ma_choice_v2_pilot2,"",2,Proximity to Parks,2,28,25 min,5 min,4414,6033,2021-10-24 22:04:12,1406
5aabd17644adc700014c8621,ma_choice_v2_pilot2,"",4,Proximity to Waterfront/Beaches,2,25,90 min,10 min,5002,5060,2021-10-24 22:04:14,1407
5d4a1c04bddc8a001532cb06,ma_choice_v2_pilot2,"",10,Size of Yard,2,26,Small,Medium,2972,2733,2021-10-24 22:04:17,1408
5d45e9143c5a360019b1bd3c,ma_choice_v2_pilot2,"",0,Number of Bedrooms,2,25,1 bdrm,3 bdrm,4265,4832,2021-10-24 22:04:21,1409
5aabd17644adc700014c8621,ma_choice_v2_pilot2,"",12,Central AC,2,50,No,Yes,3745,3059,2021-10-24 22:04:21,1410
5d4a1c04bddc8a001532cb06,ma_choice_v2_pilot2,"",3,Proximity to Cafes/Restaurants,2,4,25 min,20 min,2862,6427,2021-10-24 22:04:26,1411
5aabd17644adc700014c8621,ma_choice_v2_pilot2,"",8,Age of Building,2,24,Old,New,4394,4597,2021-10-24 22:04:30,1412
5d4a1c04bddc8a001532cb06,ma_choice_v2_pilot2,"",0,Number of Bedrooms,2,40,5 bdrm,1 bdrm,5308,3934,2021-10-24 22:04:35,1413
5d5185e4cbc535001a298bcf,ma_choice_v2_pilot2,"",2,Proximity to Parks,1,0,5 min,25 min,9397,24290,2021-10-24 22:04:37,1414
5aabd17644adc700014c8621,ma_choice_v2_pilot2,"",2,Proximity to Parks,2,51,25 min,5 min,3681,4701,2021-10-24 22:04:39,1415
5d4a1c04bddc8a001532cb06,ma_choice_v2_pilot2,"",2,Proximity to Parks,2,7,25 min,25 min,3004,7052,2021-10-24 22:04:45,1416
5aabd17644adc700014c8621,ma_choice_v2_pilot2,"",15,Freshly Painted Exterior,2,41,No,Yes,4778,3477,2021-10-24 22:04:47,1417
5d4a1c04bddc8a001532cb06,ma_choice_v2_pilot2,"",8,Age of Building,2,32,Medium,New,4442,4206,2021-10-24 22:04:54,1418
5aabd17644adc700014c8621,ma_choice_v2_pilot2,"",13,Climate of Area,2,40,Very Bad,Very Good,3716,4640,2021-10-24 22:04:55,1419
5d4a1c04bddc8a001532cb06,ma_choice_v2_pilot2,"",11,Fireplace,2,51,Yes,Yes,2669,2046,2021-10-24 22:04:59,1420
5aabd17644adc700014c8621,ma_choice_v2_pilot2,"",6,Reputation of Closest School,2,62,Very Bad,Very Good,4393,4781,2021-10-24 22:05:04,1421
5d4a1c04bddc8a001532cb06,ma_choice_v2_pilot2,"",16,Size of Home,2,73,2000 square feet,400 square feet,3804,4142,2021-10-24 22:05:07,1422
5aabd17644adc700014c8621,ma_choice_v2_pilot2,"",1,Size of Garage,2,34,None,Very Large,5913,6417,2021-10-24 22:05:17,1423
5d5185e4cbc535001a298bcf,ma_choice_v2_pilot2,"",0,Number of Bedrooms,1,1,5 bdrm,3 bdrm,18381,23712,2021-10-24 22:05:19,1424
5f8998f6bfe9d6067c4b8a72,ma_choice_v2_pilot2,"",5,Noise Pollution,2,75,Very High,Very Low,8941,12751,2021-10-24 22:05:39,1425
5d5185e4cbc535001a298bcf,ma_choice_v2_pilot2,"",3,Proximity to Cafes/Restaurants,1,0,5 min,15 min,8398,15968,2021-10-24 22:05:44,1426
5f8998f6bfe9d6067c4b8a72,ma_choice_v2_pilot2,"",11,Fireplace,2,25,No,Yes,4542,10383,2021-10-24 22:05:54,1427
5f8998f6bfe9d6067c4b8a72,ma_choice_v2_pilot2,"",3,Proximity to Cafes/Restaurants,2,26,25 min,5 min,4991,5239,2021-10-24 22:06:04,1428
5d5185e4cbc535001a298bcf,ma_choice_v2_pilot2,"",9,Washer/Dryer,1,1,No,Yes,4052,21957,2021-10-24 22:06:10,1429
5f8998f6bfe9d6067c4b8a72,ma_choice_v2_pilot2,"",4,Proximity to Waterfront/Beaches,2,41,90 min,10 min,3478,3391,2021-10-24 22:06:11,1430
5f8998f6bfe9d6067c4b8a72,ma_choice_v2_pilot2,"",10,Size of Yard,2,75,None,Large,3254,5928,2021-10-24 22:06:20,1431
5d5185e4cbc535001a298bcf,ma_choice_v2_pilot2,"",12,Central AC,1,1,No,Yes,3850,10946,2021-10-24 22:06:25,1432
5f8998f6bfe9d6067c4b8a72,ma_choice_v2_pilot2,"",7,Amount of Natural Light,2,62,Very Little,A Lot,4807,6704,2021-10-24 22:06:31,1433
5f8998f6bfe9d6067c4b8a72,ma_choice_v2_pilot2,"",2,Proximity to Parks,2,42,25 min,5 min,7031,6959,2021-10-24 22:06:45,1434
5d5185e4cbc535001a298bcf,ma_choice_v2_pilot2,"",7,Amount of Natural Light,1,1,Very Little,A Moderate Amount,9398,20748,2021-10-24 22:06:55,1435
5f8998f6bfe9d6067c4b8a72,ma_choice_v2_pilot2,"",16,Size of Home,2,72,400 square feet,2000 square feet,5406,4976,2021-10-24 22:06:56,1436
5f8998f6bfe9d6067c4b8a72,ma_choice_v2_pilot2,"",14,Hardwood Floors,2,15,No,Yes,3798,4767,2021-10-24 22:07:04,1437
5f8998f6bfe9d6067c4b8a72,ma_choice_v2_pilot2,"",13,Climate of Area,2,79,Very Bad,Very Good,5454,4023,2021-10-24 22:07:14,1438
5d5185e4cbc535001a298bcf,ma_choice_v2_pilot2,"",13,Climate of Area,1,1,Very Bad,Very Good,9368,13086,2021-10-24 22:07:17,1439
5f8998f6bfe9d6067c4b8a72,ma_choice_v2_pilot2,"",9,Washer/Dryer,2,14,No,Yes,2830,3944,2021-10-24 22:07:21,1440
5d5185e4cbc535001a298bcf,ma_choice_v2_pilot2,"",8,Age of Building,1,1,Old,New,5160,10010,2021-10-24 22:07:32,1441
5f8998f6bfe9d6067c4b8a72,ma_choice_v2_pilot2,"",12,Central AC,2,47,No,Yes,10391,4128,2021-10-24 22:07:35,1442
5f8998f6bfe9d6067c4b8a72,ma_choice_v2_pilot2,"",6,Reputation of Closest School,2,77,Very Bad,Very Good,5270,3448,2021-10-24 22:07:44,1443
5d5185e4cbc535001a298bcf,ma_choice_v2_pilot2,"",6,Reputation of Closest School,1,1,Very Bad,Very Good,7751,9073,2021-10-24 22:07:49,1444
5f8998f6bfe9d6067c4b8a72,ma_choice_v2_pilot2,"",0,Number of Bedrooms,2,58,1 bdrm,5 bdrm,8013,4703,2021-10-24 22:07:57,1445
5d5185e4cbc535001a298bcf,ma_choice_v2_pilot2,"",15,Freshly Painted Exterior,1,1,No,Yes,6224,5971,2021-10-24 22:08:01,1446
5f8998f6bfe9d6067c4b8a72,ma_choice_v2_pilot2,"",8,Age of Building,2,74,Old,New,3911,3127,2021-10-24 22:08:04,1447
5f8998f6bfe9d6067c4b8a72,ma_choice_v2_pilot2,"",1,Size of Garage,2,34,None,Very Large,3694,3503,2021-10-24 22:08:11,1448
5dd78dc3238a9171fbd93f22,ma_choice_v2_pilot2,"",13,Climate of Area,2,63,Very Bad,Very Good,5668,10324,2021-10-24 22:08:14,1449
5f8998f6bfe9d6067c4b8a72,ma_choice_v2_pilot2,"",15,Freshly Painted Exterior,2,11,No,Yes,4046,3407,2021-10-24 22:08:18,1450
5dd78dc3238a9171fbd93f22,ma_choice_v2_pilot2,"",10,Size of Yard,2,26,None,Large,4158,7440,2021-10-24 22:08:26,1451
5d5185e4cbc535001a298bcf,ma_choice_v2_pilot2,"",4,Proximity to Waterfront/Beaches,1,0,10 min,50 min,6224,19637,2021-10-24 22:08:27,1452
5dd78dc3238a9171fbd93f22,ma_choice_v2_pilot2,"",0,Number of Bedrooms,2,67,1 bdrm,3 bdrm,5727,5719,2021-10-24 22:08:37,1453
5dd78dc3238a9171fbd93f22,ma_choice_v2_pilot2,"",5,Noise Pollution,2,17,Very High,Low,5397,7566,2021-10-24 22:08:50,1454
5d5185e4cbc535001a298bcf,ma_choice_v2_pilot2,"",1,Size of Garage,1,1,Small,Large,10881,15064,2021-10-24 22:08:53,1455
5dd78dc3238a9171fbd93f22,ma_choice_v2_pilot2,"",2,Proximity to Parks,2,0,25 min,10 min,5275,7019,2021-10-24 22:09:02,1456
5dd78dc3238a9171fbd93f22,ma_choice_v2_pilot2,"",6,Reputation of Closest School,2,0,Very Bad,Very Good,43990,7109,2021-10-24 22:09:54,1457
5dd78dc3238a9171fbd93f22,ma_choice_v2_pilot2,"",8,Age of Building,2,24,Old,New,5894,4420,2021-10-24 22:10:04,1458
5dd78dc3238a9171fbd93f22,ma_choice_v2_pilot2,"",16,Size of Home,2,57,400 square feet,2000 square feet,4962,6941,2021-10-24 22:10:16,1459
5dd78dc3238a9171fbd93f22,ma_choice_v2_pilot2,"",11,Fireplace,2,0,No,Yes,5132,5206,2021-10-24 22:10:26,1460
5dd78dc3238a9171fbd93f22,ma_choice_v2_pilot2,"",1,Size of Garage,2,14,None,Large,3099,4594,2021-10-24 22:10:34,1461
5dd78dc3238a9171fbd93f22,ma_choice_v2_pilot2,"",12,Central AC,2,100,No,Yes,13645,4527,2021-10-24 22:10:52,1462
5dd78dc3238a9171fbd93f22,ma_choice_v2_pilot2,"",14,Hardwood Floors,2,24,No,Yes,3579,4186,2021-10-24 22:11:00,1463
5dd78dc3238a9171fbd93f22,ma_choice_v2_pilot2,"",4,Proximity to Waterfront/Beaches,2,0,50 min,50 min,3409,8748,2021-10-24 22:11:12,1464
5dd78dc3238a9171fbd93f22,ma_choice_v2_pilot2,"",15,Freshly Painted Exterior,2,0,No,Yes,3237,5693,2021-10-24 22:11:21,1465
5dd78dc3238a9171fbd93f22,ma_choice_v2_pilot2,"",7,Amount of Natural Light,2,10,A Lot,A Moderate Amount,4614,8422,2021-10-24 22:11:34,1466
5dd78dc3238a9171fbd93f22,ma_choice_v2_pilot2,"",9,Washer/Dryer,2,100,No,Yes,3979,3712,2021-10-24 22:11:42,1467
5dd78dc3238a9171fbd93f22,ma_choice_v2_pilot2,"",3,Proximity to Cafes/Restaurants,2,37,25 min,5 min,4363,5692,2021-10-24 22:11:52,1468
5f98a6f472208c1bac70c2c2,ma_choice_v2_pilot2,"",10,Size of Yard,2,7,None,Medium,6575,14766,2021-10-24 22:16:54,1469
5f98a6f472208c1bac70c2c2,ma_choice_v2_pilot2,"",6,Reputation of Closest School,2,5,Very Bad,Very Good,3702,4383,2021-10-24 22:17:02,1470
5f98a6f472208c1bac70c2c2,ma_choice_v2_pilot2,"",1,Size of Garage,2,5,None,Small,4359,5739,2021-10-24 22:17:13,1471
5f98a6f472208c1bac70c2c2,ma_choice_v2_pilot2,"",3,Proximity to Cafes/Restaurants,2,25,25 min,5 min,3591,5482,2021-10-24 22:17:21,1472
5f98a6f472208c1bac70c2c2,ma_choice_v2_pilot2,"",4,Proximity to Waterfront/Beaches,2,25,90 min,10 min,3754,4808,2021-10-24 22:17:30,1473
5f98a6f472208c1bac70c2c2,ma_choice_v2_pilot2,"",15,Freshly Painted Exterior,2,4,No,Yes,3163,6642,2021-10-24 22:17:40,1474
5f98a6f472208c1bac70c2c2,ma_choice_v2_pilot2,"",8,Age of Building,2,50,Old,New,5920,4426,2021-10-24 22:17:50,1475
5f98a6f472208c1bac70c2c2,ma_choice_v2_pilot2,"",9,Washer/Dryer,2,100,No,Yes,3848,3926,2021-10-24 22:17:58,1476
5f98a6f472208c1bac70c2c2,ma_choice_v2_pilot2,"",13,Climate of Area,2,100,Very Bad,Very Good,2978,3249,2021-10-24 22:18:04,1477
5f98a6f472208c1bac70c2c2,ma_choice_v2_pilot2,"",2,Proximity to Parks,2,100,25 min,5 min,3080,3606,2021-10-24 22:18:11,1478
5f98a6f472208c1bac70c2c2,ma_choice_v2_pilot2,"",14,Hardwood Floors,2,50,No,Yes,3453,2613,2021-10-24 22:18:17,1479
5f98a6f472208c1bac70c2c2,ma_choice_v2_pilot2,"",7,Amount of Natural Light,2,88,Very Little,A Lot,11089,3629,2021-10-24 22:18:32,1480
5f98a6f472208c1bac70c2c2,ma_choice_v2_pilot2,"",0,Number of Bedrooms,2,25,5 bdrm,1 bdrm,4520,4438,2021-10-24 22:18:41,1481
5f98a6f472208c1bac70c2c2,ma_choice_v2_pilot2,"",11,Fireplace,2,25,No,Yes,4082,5507,2021-10-24 22:18:50,1482
5f98a6f472208c1bac70c2c2,ma_choice_v2_pilot2,"",12,Central AC,2,75,No,Yes,5451,2825,2021-10-24 22:18:58,1483
5f98a6f472208c1bac70c2c2,ma_choice_v2_pilot2,"",16,Size of Home,2,76,400 square feet,1200 square feet,3510,5099,2021-10-24 22:19:07,1484
5f98a6f472208c1bac70c2c2,ma_choice_v2_pilot2,"",5,Noise Pollution,2,95,Very High,Very Low,3378,5133,2021-10-24 22:19:16,1485
5bb2e60526f5300001ebf51b,ma_choice_v2_pilot2,"",8,Age of Building,2,51,Medium,Medium,3382,6540,2021-10-24 22:23:31,1486
5bb2e60526f5300001ebf51b,ma_choice_v2_pilot2,"",10,Size of Yard,2,88,None,Very Large,3420,6571,2021-10-24 22:23:41,1487
5bb2e60526f5300001ebf51b,ma_choice_v2_pilot2,"",14,Hardwood Floors,2,75,No,Yes,2744,7311,2021-10-24 22:23:51,1488
5bb2e60526f5300001ebf51b,ma_choice_v2_pilot2,"",16,Size of Home,2,74,400 square feet,1200 square feet,2088,5082,2021-10-24 22:23:58,1489
5bb2e60526f5300001ebf51b,ma_choice_v2_pilot2,"",1,Size of Garage,2,50,None,Very Large,2566,3946,2021-10-24 22:24:04,1490
5bb2e60526f5300001ebf51b,ma_choice_v2_pilot2,"",4,Proximity to Waterfront/Beaches,2,100,90 min,10 min,2243,4236,2021-10-24 22:24:11,1491
5bb2e60526f5300001ebf51b,ma_choice_v2_pilot2,"",6,Reputation of Closest School,2,11,Very Bad,Very Good,3242,4485,2021-10-24 22:24:19,1492
5bb2e60526f5300001ebf51b,ma_choice_v2_pilot2,"",2,Proximity to Parks,2,48,25 min,5 min,2211,3909,2021-10-24 22:24:25,1493
5bb2e60526f5300001ebf51b,ma_choice_v2_pilot2,"",0,Number of Bedrooms,2,67,1 bdrm,3 bdrm,2951,2956,2021-10-24 22:24:31,1494
5bb2e60526f5300001ebf51b,ma_choice_v2_pilot2,"",5,Noise Pollution,2,66,Very High,Very Low,7013,3753,2021-10-24 22:24:41,1495
5bb2e60526f5300001ebf51b,ma_choice_v2_pilot2,"",11,Fireplace,2,37,No,Yes,2888,2327,2021-10-24 22:24:47,1496
5bb2e60526f5300001ebf51b,ma_choice_v2_pilot2,"",9,Washer/Dryer,2,90,No,Yes,1842,1731,2021-10-24 22:24:50,1497
5bb2e60526f5300001ebf51b,ma_choice_v2_pilot2,"",13,Climate of Area,2,61,Very Bad,Very Good,1744,2206,2021-10-24 22:24:54,1498
5bb2e60526f5300001ebf51b,ma_choice_v2_pilot2,"",15,Freshly Painted Exterior,2,35,No,Yes,1929,2689,2021-10-24 22:24:59,1499
5bb2e60526f5300001ebf51b,ma_choice_v2_pilot2,"",7,Amount of Natural Light,2,89,Very Little,A Lot,2188,2625,2021-10-24 22:25:04,1500
5bb2e60526f5300001ebf51b,ma_choice_v2_pilot2,"",3,Proximity to Cafes/Restaurants,2,72,25 min,5 min,2313,3245,2021-10-24 22:25:09,1501
5bb2e60526f5300001ebf51b,ma_choice_v2_pilot2,"",12,Central AC,2,100,No,Yes,3402,2783,2021-10-24 22:25:15,1502
545d3e2bfdf99b7f9e3255b4,ma_choice_v2_pilot2,"",0,Number of Bedrooms,2,12,5 bdrm,1 bdrm,7423,9286,2021-10-24 22:35:56,1503
5d1d5027558790001a6d4dea,ma_choice_v2_pilot2,"",12,Central AC,1,1,No,Yes,5536,5844,2021-10-24 22:37:07,1504
5d1d5027558790001a6d4dea,ma_choice_v2_pilot2,"",16,Size of Home,1,0,400 square feet,2000 square feet,3819,3946,2021-10-24 22:37:15,1505
5d1d5027558790001a6d4dea,ma_choice_v2_pilot2,"",0,Number of Bedrooms,1,0,5 bdrm,1 bdrm,3144,3380,2021-10-24 22:37:21,1506
545d3e2bfdf99b7f9e3255b4,ma_choice_v2_pilot2,"",14,Hardwood Floors,2,0,No,Yes,82725,8863,2021-10-24 22:37:27,1507
5d1d5027558790001a6d4dea,ma_choice_v2_pilot2,"",14,Hardwood Floors,1,1,No,Yes,2674,11052,2021-10-24 22:37:35,1508
5d1d5027558790001a6d4dea,ma_choice_v2_pilot2,"",5,Noise Pollution,1,1,Very High,Very Low,1738,2215,2021-10-24 22:37:39,1509
545d3e2bfdf99b7f9e3255b4,ma_choice_v2_pilot2,"",5,Noise Pollution,2,65,Very High,Very Low,7867,4711,2021-10-24 22:37:40,1510
5d1d5027558790001a6d4dea,ma_choice_v2_pilot2,"",15,Freshly Painted Exterior,1,0,No,Yes,2788,3635,2021-10-24 22:37:45,1511
5d1d5027558790001a6d4dea,ma_choice_v2_pilot2,"",4,Proximity to Waterfront/Beaches,1,0,90 min,10 min,4244,4716,2021-10-24 22:37:54,1512
5d1d5027558790001a6d4dea,ma_choice_v2_pilot2,"",2,Proximity to Parks,1,1,25 min,5 min,2328,2545,2021-10-24 22:37:59,1513
5d1d5027558790001a6d4dea,ma_choice_v2_pilot2,"",10,Size of Yard,1,0,None,Large,3834,4210,2021-10-24 22:38:07,1514
5d1d5027558790001a6d4dea,ma_choice_v2_pilot2,"",3,Proximity to Cafes/Restaurants,1,1,25 min,5 min,1813,2754,2021-10-24 22:38:12,1515
5d1d5027558790001a6d4dea,ma_choice_v2_pilot2,"",11,Fireplace,1,0,No,Yes,4104,2455,2021-10-24 22:38:18,1516
5d1d5027558790001a6d4dea,ma_choice_v2_pilot2,"",8,Age of Building,1,0,Old,New,2069,2270,2021-10-24 22:38:22,1517
5d1d5027558790001a6d4dea,ma_choice_v2_pilot2,"",13,Climate of Area,1,1,Very Bad,Very Good,4628,2691,2021-10-24 22:38:30,1518
5d1d5027558790001a6d4dea,ma_choice_v2_pilot2,"",1,Size of Garage,1,1,Small,Large,4784,6421,2021-10-24 22:38:41,1519
5d1d5027558790001a6d4dea,ma_choice_v2_pilot2,"",9,Washer/Dryer,1,1,No,Yes,10076,2384,2021-10-24 22:38:53,1520
5d1d5027558790001a6d4dea,ma_choice_v2_pilot2,"",7,Amount of Natural Light,1,1,Very Little,A Lot,1535,2420,2021-10-24 22:38:57,1521
5d1d5027558790001a6d4dea,ma_choice_v2_pilot2,"",6,Reputation of Closest School,1,1,Very Bad,Very Good,1978,1791,2021-10-24 22:39:01,1522
5dd3269b7df219338fb2d3c4,ma_choice_v2_pilot2,"",2,Proximity to Parks,2,62,25 min,10 min,8421,12764,2021-10-24 22:41:52,1523
5dd3269b7df219338fb2d3c4,ma_choice_v2_pilot2,"",10,Size of Yard,2,26,None,Medium,3949,7182,2021-10-24 22:42:03,1524
5dd3269b7df219338fb2d3c4,ma_choice_v2_pilot2,"",8,Age of Building,2,25,Old,Medium,3849,5594,2021-10-24 22:42:12,1525
5dd3269b7df219338fb2d3c4,ma_choice_v2_pilot2,"",3,Proximity to Cafes/Restaurants,2,74,25 min,5 min,4864,4214,2021-10-24 22:42:21,1526
5dd3269b7df219338fb2d3c4,ma_choice_v2_pilot2,"",9,Washer/Dryer,2,50,No,Yes,5176,4870,2021-10-24 22:42:31,1527
5dd3269b7df219338fb2d3c4,ma_choice_v2_pilot2,"",12,Central AC,2,50,No,Yes,5253,3866,2021-10-24 22:42:40,1528
5dd3269b7df219338fb2d3c4,ma_choice_v2_pilot2,"",11,Fireplace,2,17,No,Yes,4725,3754,2021-10-24 22:42:49,1529
5dd3269b7df219338fb2d3c4,ma_choice_v2_pilot2,"",6,Reputation of Closest School,2,62,Very Bad,Very Good,6116,6175,2021-10-24 22:43:01,1530
5fe95c4399e7cf8a9b321bac,ma_choice_v2_pilot2,"",13,Climate of Area,2,50,Very Bad,Moderate,7473,19861,2021-10-24 22:43:10,1531
5dd3269b7df219338fb2d3c4,ma_choice_v2_pilot2,"",16,Size of Home,2,61,400 square feet,2000 square feet,6696,4430,2021-10-24 22:43:12,1532
5dd3269b7df219338fb2d3c4,ma_choice_v2_pilot2,"",14,Hardwood Floors,2,25,No,Yes,3065,3598,2021-10-24 22:43:19,1533
5dd3269b7df219338fb2d3c4,ma_choice_v2_pilot2,"",0,Number of Bedrooms,2,64,1 bdrm,3 bdrm,4265,4890,2021-10-24 22:43:28,1534
5fe95c4399e7cf8a9b321bac,ma_choice_v2_pilot2,"",9,Washer/Dryer,2,75,No,Yes,8841,15882,2021-10-24 22:43:35,1535
5dd3269b7df219338fb2d3c4,ma_choice_v2_pilot2,"",13,Climate of Area,2,71,Very Bad,Very Good,5365,3991,2021-10-24 22:43:38,1536
5dd3269b7df219338fb2d3c4,ma_choice_v2_pilot2,"",1,Size of Garage,2,25,None,Large,3908,4322,2021-10-24 22:43:46,1537
5fe95c4399e7cf8a9b321bac,ma_choice_v2_pilot2,"",10,Size of Yard,2,50,None,Medium,5458,12149,2021-10-24 22:43:52,1538
5dd3269b7df219338fb2d3c4,ma_choice_v2_pilot2,"",5,Noise Pollution,2,76,Very High,Very Low,3385,4326,2021-10-24 22:43:54,1539
5dd3269b7df219338fb2d3c4,ma_choice_v2_pilot2,"",4,Proximity to Waterfront/Beaches,2,74,90 min,10 min,4036,4555,2021-10-24 22:44:02,1540
5fe95c4399e7cf8a9b321bac,ma_choice_v2_pilot2,"",2,Proximity to Parks,2,38,25 min,5 min,7175,9117,2021-10-24 22:44:09,1541
5dd3269b7df219338fb2d3c4,ma_choice_v2_pilot2,"",7,Amount of Natural Light,2,37,Very Little,A Lot,4057,4663,2021-10-24 22:44:11,1542
545d3e2bfdf99b7f9e3255b4,ma_choice_v2_pilot2,"",2,Proximity to Parks,2,52,25 min,5 min,232222,165182,2021-10-24 22:44:18,1543
5fe95c4399e7cf8a9b321bac,ma_choice_v2_pilot2,"",0,Number of Bedrooms,2,51,5 bdrm,1 bdrm,5316,5622,2021-10-24 22:44:20,1544
5dd3269b7df219338fb2d3c4,ma_choice_v2_pilot2,"",15,Freshly Painted Exterior,2,19,No,Yes,3312,6006,2021-10-24 22:44:20,1545
5fe95c4399e7cf8a9b321bac,ma_choice_v2_pilot2,"",3,Proximity to Cafes/Restaurants,2,88,25 min,5 min,9459,4780,2021-10-24 22:44:34,1546
5fe95c4399e7cf8a9b321bac,ma_choice_v2_pilot2,"",12,Central AC,2,89,No,Yes,3325,3065,2021-10-24 22:44:40,1547
5fe95c4399e7cf8a9b321bac,ma_choice_v2_pilot2,"",15,Freshly Painted Exterior,2,0,No,Yes,4207,7806,2021-10-24 22:44:52,1548
5fe95c4399e7cf8a9b321bac,ma_choice_v2_pilot2,"",7,Amount of Natural Light,2,74,Very Little,A Lot,3487,8230,2021-10-24 22:45:04,1549
5fe95c4399e7cf8a9b321bac,ma_choice_v2_pilot2,"",1,Size of Garage,2,39,None,Medium,4327,4897,2021-10-24 22:45:13,1550
5fe95c4399e7cf8a9b321bac,ma_choice_v2_pilot2,"",5,Noise Pollution,2,87,Very High,Very Low,3416,10901,2021-10-24 22:45:27,1551
5fe95c4399e7cf8a9b321bac,ma_choice_v2_pilot2,"",4,Proximity to Waterfront/Beaches,2,37,90 min,10 min,7235,9910,2021-10-24 22:45:45,1552
5fe95c4399e7cf8a9b321bac,ma_choice_v2_pilot2,"",16,Size of Home,2,74,400 square feet,2000 square feet,7589,4463,2021-10-24 22:45:57,1553
5fe95c4399e7cf8a9b321bac,ma_choice_v2_pilot2,"",11,Fireplace,2,13,No,Yes,3647,2787,2021-10-24 22:46:02,1554
545d3e2bfdf99b7f9e3255b4,ma_choice_v2_pilot2,"",10,Size of Yard,2,70,None,Very Large,5405,102431,2021-10-24 22:46:05,1555
5fe95c4399e7cf8a9b321bac,ma_choice_v2_pilot2,"",6,Reputation of Closest School,2,50,Very Bad,Very Good,4126,6567,2021-10-24 22:46:14,1556
545d3e2bfdf99b7f9e3255b4,ma_choice_v2_pilot2,"",3,Proximity to Cafes/Restaurants,2,33,25 min,5 min,7189,4599,2021-10-24 22:46:17,1557
5fe95c4399e7cf8a9b321bac,ma_choice_v2_pilot2,"",14,Hardwood Floors,2,0,No,Yes,4175,3857,2021-10-24 22:46:22,1558
5fe95c4399e7cf8a9b321bac,ma_choice_v2_pilot2,"",8,Age of Building,2,38,Old,New,5636,4869,2021-10-24 22:46:33,1559
545d3e2bfdf99b7f9e3255b4,ma_choice_v2_pilot2,"",13,Climate of Area,2,61,Very Bad,Very Good,36453,8039,2021-10-24 22:47:01,1560
545d3e2bfdf99b7f9e3255b4,ma_choice_v2_pilot2,"",9,Washer/Dryer,2,52,No,Yes,4126,5925,2021-10-24 22:47:12,1561
545d3e2bfdf99b7f9e3255b4,ma_choice_v2_pilot2,"",8,Age of Building,2,0,Old,New,9439,6798,2021-10-24 22:47:28,1562
545d3e2bfdf99b7f9e3255b4,ma_choice_v2_pilot2,"",4,Proximity to Waterfront/Beaches,2,48,90 min,10 min,4686,32439,2021-10-24 22:48:05,1563
5ec7d9910125920829519d00,ma_choice_v2_pilot2,"",0,Number of Bedrooms,2,52,1 bdrm,3 bdrm,5189,7392,2021-10-24 22:48:35,1564
5ec7d9910125920829519d00,ma_choice_v2_pilot2,"",2,Proximity to Parks,2,0,25 min,5 min,3053,13106,2021-10-24 22:48:51,1565
5ec7d9910125920829519d00,ma_choice_v2_pilot2,"",15,Freshly Painted Exterior,2,11,Yes,No,3302,5027,2021-10-24 22:48:59,1566
545d3e2bfdf99b7f9e3255b4,ma_choice_v2_pilot2,"",11,Fireplace,2,17,No,Yes,3566,54007,2021-10-24 22:49:02,1567
5ec7d9910125920829519d00,ma_choice_v2_pilot2,"",12,Central AC,2,52,No,Yes,4727,4712,2021-10-24 22:49:09,1568
545d3e2bfdf99b7f9e3255b4,ma_choice_v2_pilot2,"",1,Size of Garage,2,61,None,Very Large,5582,3687,2021-10-24 22:49:12,1569
5ec7d9910125920829519d00,ma_choice_v2_pilot2,"",8,Age of Building,2,49,Old,New,3691,3601,2021-10-24 22:49:16,1570
545d3e2bfdf99b7f9e3255b4,ma_choice_v2_pilot2,"",16,Size of Home,2,85,400 square feet,2000 square feet,4942,4735,2021-10-24 22:49:21,1571
5ec7d9910125920829519d00,ma_choice_v2_pilot2,"",5,Noise Pollution,2,74,Very High,Very Low,3466,4112,2021-10-24 22:49:24,1572
545d3e2bfdf99b7f9e3255b4,ma_choice_v2_pilot2,"",7,Amount of Natural Light,2,0,Very Little,A Lot,4166,4815,2021-10-24 22:49:30,1573
5ec7d9910125920829519d00,ma_choice_v2_pilot2,"",16,Size of Home,2,38,400 square feet,2000 square feet,4104,7673,2021-10-24 22:49:35,1574
545d3e2bfdf99b7f9e3255b4,ma_choice_v2_pilot2,"",15,Freshly Painted Exterior,2,0,No,Yes,3230,3494,2021-10-24 22:49:37,1575
5ec7d9910125920829519d00,ma_choice_v2_pilot2,"",14,Hardwood Floors,2,24,No,Yes,4207,3541,2021-10-24 22:49:43,1576
545d3e2bfdf99b7f9e3255b4,ma_choice_v2_pilot2,"",12,Central AC,2,62,No,Yes,5349,3607,2021-10-24 22:49:46,1577
5ec7d9910125920829519d00,ma_choice_v2_pilot2,"",4,Proximity to Waterfront/Beaches,2,0,10 min,70 min,2592,6657,2021-10-24 22:49:52,1578
545d3e2bfdf99b7f9e3255b4,ma_choice_v2_pilot2,"",6,Reputation of Closest School,2,0,Very Bad,Very Good,3406,3455,2021-10-24 22:49:53,1579
5ec7d9910125920829519d00,ma_choice_v2_pilot2,"",11,Fireplace,2,0,No,Yes,3390,2983,2021-10-24 22:49:59,1580
5ec7d9910125920829519d00,ma_choice_v2_pilot2,"",3,Proximity to Cafes/Restaurants,2,15,25 min,10 min,3473,4785,2021-10-24 22:50:07,1581
5ec7d9910125920829519d00,ma_choice_v2_pilot2,"",13,Climate of Area,2,88,Very Bad,Very Good,7708,4429,2021-10-24 22:50:19,1582
5ec7d9910125920829519d00,ma_choice_v2_pilot2,"",6,Reputation of Closest School,2,94,Very Bad,Very Good,3647,3208,2021-10-24 22:50:26,1583
5ec7d9910125920829519d00,ma_choice_v2_pilot2,"",1,Size of Garage,2,9,None,Very Large,3069,3539,2021-10-24 22:50:34,1584
5ec7d9910125920829519d00,ma_choice_v2_pilot2,"",9,Washer/Dryer,2,25,No,Yes,3382,2618,2021-10-24 22:50:39,1585
5ec7d9910125920829519d00,ma_choice_v2_pilot2,"",10,Size of Yard,2,25,None,Large,2657,5780,2021-10-24 22:50:47,1586
5ec7d9910125920829519d00,ma_choice_v2_pilot2,"",7,Amount of Natural Light,2,69,Very Little,A Lot,3231,2683,2021-10-24 22:50:53,1587
5a1e5764074b1900012532c2,ma_choice_v2_pilot2,"",9,Washer/Dryer,2,12,Yes,No,16291,22633,2021-10-24 22:53:14,1588
5a1e5764074b1900012532c2,ma_choice_v2_pilot2,"",12,Central AC,2,50,No,Yes,23981,8243,2021-10-24 22:53:46,1589
5a1e5764074b1900012532c2,ma_choice_v2_pilot2,"",4,Proximity to Waterfront/Beaches,2,7,90 min,30 min,14752,16756,2021-10-24 22:54:18,1590
5a1e5764074b1900012532c2,ma_choice_v2_pilot2,"",13,Climate of Area,2,49,Very Bad,Very Good,7704,17837,2021-10-24 22:54:43,1591
5a1e5764074b1900012532c2,ma_choice_v2_pilot2,"",1,Size of Garage,2,74,None,Very Large,7795,6223,2021-10-24 22:54:57,1592
5a1e5764074b1900012532c2,ma_choice_v2_pilot2,"",7,Amount of Natural Light,2,70,Very Little,A Lot,7994,9591,2021-10-24 22:55:15,1593
5a1e5764074b1900012532c2,ma_choice_v2_pilot2,"",2,Proximity to Parks,2,5,25 min,5 min,8062,19478,2021-10-24 22:55:42,1594
5a1e5764074b1900012532c2,ma_choice_v2_pilot2,"",10,Size of Yard,2,64,None,Very Large,4457,12503,2021-10-24 22:55:59,1595
5a1e5764074b1900012532c2,ma_choice_v2_pilot2,"",0,Number of Bedrooms,2,38,1 bdrm,3 bdrm,8008,18429,2021-10-24 22:56:26,1596
5a1e5764074b1900012532c2,ma_choice_v2_pilot2,"",15,Freshly Painted Exterior,2,3,No,Yes,8323,26432,2021-10-24 22:57:01,1597
5a1e5764074b1900012532c2,ma_choice_v2_pilot2,"",16,Size of Home,2,74,400 square feet,2000 square feet,6653,11751,2021-10-24 22:57:19,1598
5a1e5764074b1900012532c2,ma_choice_v2_pilot2,"",5,Noise Pollution,2,74,Very High,Very Low,8579,19552,2021-10-24 22:57:47,1599
5a1e5764074b1900012532c2,ma_choice_v2_pilot2,"",8,Age of Building,2,67,Old,New,4877,14111,2021-10-24 22:58:06,1600
5a1e5764074b1900012532c2,ma_choice_v2_pilot2,"",3,Proximity to Cafes/Restaurants,2,24,25 min,5 min,10358,36724,2021-10-24 22:58:53,1601
5a1e5764074b1900012532c2,ma_choice_v2_pilot2,"",6,Reputation of Closest School,2,3,Very Bad,Very Good,5185,7368,2021-10-24 22:59:06,1602
5a1e5764074b1900012532c2,ma_choice_v2_pilot2,"",14,Hardwood Floors,2,30,No,Yes,5534,10082,2021-10-24 22:59:21,1603
5a1e5764074b1900012532c2,ma_choice_v2_pilot2,"",11,Fireplace,2,6,No,Yes,4998,3718,2021-10-24 22:59:30,1604
5e604cc7c7c9ca392fc82f8d,ma_choice_v2_pilot2,"",3,Proximity to Cafes/Restaurants,1,1,25 min,10 min,6844,18338,2021-10-24 23:03:49,1605
5e604cc7c7c9ca392fc82f8d,ma_choice_v2_pilot2,"",5,Noise Pollution,1,1,Very High,Very Low,4202,15725,2021-10-24 23:04:09,1606
5e604cc7c7c9ca392fc82f8d,ma_choice_v2_pilot2,"",15,Freshly Painted Exterior,1,1,No,Yes,4134,23541,2021-10-24 23:04:37,1607
5e604cc7c7c9ca392fc82f8d,ma_choice_v2_pilot2,"",10,Size of Yard,1,1,None,Medium,3922,10089,2021-10-24 23:04:51,1608
5e604cc7c7c9ca392fc82f8d,ma_choice_v2_pilot2,"",13,Climate of Area,1,1,Very Bad,Very Good,3068,8752,2021-10-24 23:05:02,1609
600dab8134acba5b50136b19,ma_choice_v2_pilot2,"",10,Size of Yard,2,50,Very Large,Small,43309,13701,2021-10-24 23:05:04,1610
5e604cc7c7c9ca392fc82f8d,ma_choice_v2_pilot2,"",0,Number of Bedrooms,1,1,1 bdrm,3 bdrm,2992,10609,2021-10-24 23:05:16,1611
600dab8134acba5b50136b19,ma_choice_v2_pilot2,"",6,Reputation of Closest School,2,0,Very Bad,Very Good,4009,10186,2021-10-24 23:05:18,1612
600dab8134acba5b50136b19,ma_choice_v2_pilot2,"",13,Climate of Area,2,49,Very Bad,Very Good,4573,6514,2021-10-24 23:05:29,1613
5f481f0a4810bc2d025c56f4,ma_choice_v2_pilot2,"",4,Proximity to Waterfront/Beaches,2,0,90 min,10 min,7752,24904,2021-10-24 23:05:32,1614
5e604cc7c7c9ca392fc82f8d,ma_choice_v2_pilot2,"",9,Washer/Dryer,1,1,No,Yes,6979,12569,2021-10-24 23:05:36,1615
600dab8134acba5b50136b19,ma_choice_v2_pilot2,"",4,Proximity to Waterfront/Beaches,2,50,90 min,30 min,4910,7526,2021-10-24 23:05:41,1616
5f481f0a4810bc2d025c56f4,ma_choice_v2_pilot2,"",1,Size of Garage,2,0,None,Very Large,7185,8345,2021-10-24 23:05:47,1617
5e604cc7c7c9ca392fc82f8d,ma_choice_v2_pilot2,"",6,Reputation of Closest School,1,1,Very Bad,Very Good,3746,15072,2021-10-24 23:05:54,1618
600dab8134acba5b50136b19,ma_choice_v2_pilot2,"",14,Hardwood Floors,2,25,No,Yes,3536,10052,2021-10-24 23:05:55,1619
5f481f0a4810bc2d025c56f4,ma_choice_v2_pilot2,"",10,Size of Yard,2,0,None,Medium,4735,11979,2021-10-24 23:06:04,1620
600dab8134acba5b50136b19,ma_choice_v2_pilot2,"",2,Proximity to Parks,2,25,25 min,10 min,3184,7052,2021-10-24 23:06:05,1621
600dab8134acba5b50136b19,ma_choice_v2_pilot2,"",7,Amount of Natural Light,2,63,Very Little,A Moderate Amount,4052,5768,2021-10-24 23:06:15,1622
5f481f0a4810bc2d025c56f4,ma_choice_v2_pilot2,"",15,Freshly Painted Exterior,2,0,No,Yes,5119,12771,2021-10-24 23:06:22,1623
600dab8134acba5b50136b19,ma_choice_v2_pilot2,"",9,Washer/Dryer,2,87,No,Yes,3462,4376,2021-10-24 23:06:23,1624
5f481f0a4810bc2d025c56f4,ma_choice_v2_pilot2,"",16,Size of Home,2,50,400 square feet,1200 square feet,8234,11197,2021-10-24 23:06:41,1625
600dab8134acba5b50136b19,ma_choice_v2_pilot2,"",0,Number of Bedrooms,2,51,5 bdrm,3 bdrm,7313,15612,2021-10-24 23:06:46,1626
600dab8134acba5b50136b19,ma_choice_v2_pilot2,"",8,Age of Building,2,25,Old,Medium,3318,5034,2021-10-24 23:06:54,1627
5e604cc7c7c9ca392fc82f8d,ma_choice_v2_pilot2,"",7,Amount of Natural Light,1,1,Very Little,A Moderate Amount,3496,57582,2021-10-24 23:06:55,1628
5f481f0a4810bc2d025c56f4,ma_choice_v2_pilot2,"",2,Proximity to Parks,2,0,5 min,15 min,4329,17475,2021-10-24 23:07:06,1629
600dab8134acba5b50136b19,ma_choice_v2_pilot2,"",16,Size of Home,2,64,400 square feet,2000 square feet,3248,8771,2021-10-24 23:07:07,1630
5e604cc7c7c9ca392fc82f8d,ma_choice_v2_pilot2,"",4,Proximity to Waterfront/Beaches,1,1,90 min,10 min,4811,9600,2021-10-24 23:07:11,1631
600dab8134acba5b50136b19,ma_choice_v2_pilot2,"",3,Proximity to Cafes/Restaurants,2,37,25 min,10 min,5136,5126,2021-10-24 23:07:17,1632
5f481f0a4810bc2d025c56f4,ma_choice_v2_pilot2,"",14,Hardwood Floors,2,63,No,Yes,10341,4753,2021-10-24 23:07:18,1633
5e604cc7c7c9ca392fc82f8d,ma_choice_v2_pilot2,"",14,Hardwood Floors,1,1,No,Yes,3231,12203,2021-10-24 23:07:25,1634
600dab8134acba5b50136b19,ma_choice_v2_pilot2,"",1,Size of Garage,2,38,None,Large,3248,8451,2021-10-24 23:07:28,1635
5f481f0a4810bc2d025c56f4,ma_choice_v2_pilot2,"",5,Noise Pollution,2,75,Very High,Very Low,6184,6607,2021-10-24 23:07:31,1636
5e604cc7c7c9ca392fc82f8d,ma_choice_v2_pilot2,"",8,Age of Building,1,1,Old,New,5221,9447,2021-10-24 23:07:40,1637
600dab8134acba5b50136b19,ma_choice_v2_pilot2,"",5,Noise Pollution,2,100,Very High,Very Low,8212,5706,2021-10-24 23:07:42,1638
5f481f0a4810bc2d025c56f4,ma_choice_v2_pilot2,"",11,Fireplace,2,26,No,Yes,5022,6234,2021-10-24 23:07:42,1639
600dab8134acba5b50136b19,ma_choice_v2_pilot2,"",11,Fireplace,2,43,No,Yes,2952,4163,2021-10-24 23:07:49,1640
5e604cc7c7c9ca392fc82f8d,ma_choice_v2_pilot2,"",1,Size of Garage,1,1,None,Medium,4043,5897,2021-10-24 23:07:50,1641
600dab8134acba5b50136b19,ma_choice_v2_pilot2,"",15,Freshly Painted Exterior,2,11,No,Yes,2672,3173,2021-10-24 23:07:55,1642
5f481f0a4810bc2d025c56f4,ma_choice_v2_pilot2,"",7,Amount of Natural Light,2,13,Very Little,A Lot,5932,8299,2021-10-24 23:07:57,1643
600dab8134acba5b50136b19,ma_choice_v2_pilot2,"",12,Central AC,2,96,No,Yes,2991,2888,2021-10-24 23:08:01,1644
5e604cc7c7c9ca392fc82f8d,ma_choice_v2_pilot2,"",11,Fireplace,1,1,Yes,No,3239,29661,2021-10-24 23:08:23,1645
5f481f0a4810bc2d025c56f4,ma_choice_v2_pilot2,"",0,Number of Bedrooms,2,12,5 bdrm,1 bdrm,18713,8235,2021-10-24 23:08:23,1646
5e604cc7c7c9ca392fc82f8d,ma_choice_v2_pilot2,"",2,Proximity to Parks,1,1,25 min,5 min,2933,12229,2021-10-24 23:08:38,1647
5f481f0a4810bc2d025c56f4,ma_choice_v2_pilot2,"",6,Reputation of Closest School,2,0,Very Bad,Very Good,11741,6819,2021-10-24 23:08:42,1648
59290818ff4f900001828b23,ma_choice_v2_pilot2,"",2,Proximity to Parks,1,1,25 min,10 min,5472,15866,2021-10-24 23:08:45,1649
5e604cc7c7c9ca392fc82f8d,ma_choice_v2_pilot2,"",12,Central AC,1,1,No,Yes,3240,6682,2021-10-24 23:08:48,1650
5f481f0a4810bc2d025c56f4,ma_choice_v2_pilot2,"",9,Washer/Dryer,2,100,No,Yes,5533,4369,2021-10-24 23:08:52,1651
59290818ff4f900001828b23,ma_choice_v2_pilot2,"",15,Freshly Painted Exterior,1,0,No,Yes,2947,10334,2021-10-24 23:08:58,1652
5f481f0a4810bc2d025c56f4,ma_choice_v2_pilot2,"",13,Climate of Area,2,87,Very Bad,Very Good,3826,4876,2021-10-24 23:09:01,1653
5e604cc7c7c9ca392fc82f8d,ma_choice_v2_pilot2,"",16,Size of Home,1,1,400 square feet,1200 square feet,2599,11563,2021-10-24 23:09:02,1654
59290818ff4f900001828b23,ma_choice_v2_pilot2,"",3,Proximity to Cafes/Restaurants,1,1,25 min,10 min,5754,8255,2021-10-24 23:09:12,1655
5f481f0a4810bc2d025c56f4,ma_choice_v2_pilot2,"",3,Proximity to Cafes/Restaurants,2,74,25 min,5 min,5609,6599,2021-10-24 23:09:13,1656
5f481f0a4810bc2d025c56f4,ma_choice_v2_pilot2,"",12,Central AC,2,100,No,Yes,2989,4461,2021-10-24 23:09:20,1657
59290818ff4f900001828b23,ma_choice_v2_pilot2,"",0,Number of Bedrooms,1,1,1 bdrm,3 bdrm,3534,7520,2021-10-24 23:09:23,1658
5f481f0a4810bc2d025c56f4,ma_choice_v2_pilot2,"",8,Age of Building,2,75,Old,New,7068,3929,2021-10-24 23:09:31,1659
59290818ff4f900001828b23,ma_choice_v2_pilot2,"",7,Amount of Natural Light,1,1,Very Little,A Moderate Amount,2918,10545,2021-10-24 23:09:36,1660
59290818ff4f900001828b23,ma_choice_v2_pilot2,"",10,Size of Yard,1,1,None,Large,2556,6713,2021-10-24 23:09:46,1661
59290818ff4f900001828b23,ma_choice_v2_pilot2,"",14,Hardwood Floors,1,0,No,Yes,3142,6144,2021-10-24 23:09:55,1662
59290818ff4f900001828b23,ma_choice_v2_pilot2,"",6,Reputation of Closest School,1,0,Very Bad,Very Good,3241,7164,2021-10-24 23:10:05,1663
59290818ff4f900001828b23,ma_choice_v2_pilot2,"",9,Washer/Dryer,1,1,No,Yes,2764,3939,2021-10-24 23:10:12,1664
59290818ff4f900001828b23,ma_choice_v2_pilot2,"",11,Fireplace,1,0,No,Yes,2853,3003,2021-10-24 23:10:18,1665
59290818ff4f900001828b23,ma_choice_v2_pilot2,"",13,Climate of Area,1,1,Very Bad,Good,3349,5574,2021-10-24 23:10:27,1666
59290818ff4f900001828b23,ma_choice_v2_pilot2,"",5,Noise Pollution,1,1,Very High,Low,3084,9083,2021-10-24 23:10:39,1667
59290818ff4f900001828b23,ma_choice_v2_pilot2,"",16,Size of Home,1,1,400 square feet,1200 square feet,3055,7495,2021-10-24 23:10:49,1668
59290818ff4f900001828b23,ma_choice_v2_pilot2,"",1,Size of Garage,1,1,None,Medium,2448,7796,2021-10-24 23:11:00,1669
59290818ff4f900001828b23,ma_choice_v2_pilot2,"",8,Age of Building,1,1,Old,Medium,2291,5474,2021-10-24 23:11:07,1670
59290818ff4f900001828b23,ma_choice_v2_pilot2,"",12,Central AC,1,1,No,Yes,2422,3139,2021-10-24 23:11:13,1671
59290818ff4f900001828b23,ma_choice_v2_pilot2,"",4,Proximity to Waterfront/Beaches,1,1,90 min,30 min,3199,5268,2021-10-24 23:11:22,1672
5daa748f1fee4c0016b1ab7a,ma_choice_v2_pilot2,"",2,Proximity to Parks,2,12,25 min,5 min,7875,14546,2021-10-24 23:22:12,1673
5daa748f1fee4c0016b1ab7a,ma_choice_v2_pilot2,"",14,Hardwood Floors,2,25,No,Yes,8037,18629,2021-10-24 23:22:38,1674
5daa748f1fee4c0016b1ab7a,ma_choice_v2_pilot2,"",4,Proximity to Waterfront/Beaches,2,63,90 min,10 min,15594,10829,2021-10-24 23:23:05,1675
5daa748f1fee4c0016b1ab7a,ma_choice_v2_pilot2,"",7,Amount of Natural Light,2,18,Very Little,A Lot,8551,15368,2021-10-24 23:23:29,1676
5f21c29511084913913af654,ma_choice_v2_pilot2,"",6,Reputation of Closest School,2,13,Very Good,Very Good,9474,16534,2021-10-24 23:23:48,1677
5daa748f1fee4c0016b1ab7a,ma_choice_v2_pilot2,"",6,Reputation of Closest School,2,63,Very Bad,Very Good,17134,9864,2021-10-24 23:23:56,1678
5f21c29511084913913af654,ma_choice_v2_pilot2,"",11,Fireplace,2,16,Yes,Yes,4522,6505,2021-10-24 23:23:59,1679
5f21c29511084913913af654,ma_choice_v2_pilot2,"",15,Freshly Painted Exterior,2,18,Yes,Yes,4812,2073,2021-10-24 23:24:06,1680
5f21c29511084913913af654,ma_choice_v2_pilot2,"",14,Hardwood Floors,2,16,Yes,Yes,2398,1883,2021-10-24 23:24:10,1681
5f21c29511084913913af654,ma_choice_v2_pilot2,"",13,Climate of Area,2,31,Very Good,Very Good,8505,2939,2021-10-24 23:24:21,1682
5f21c29511084913913af654,ma_choice_v2_pilot2,"",9,Washer/Dryer,2,22,Yes,Yes,3892,1539,2021-10-24 23:24:27,1683
5f21c29511084913913af654,ma_choice_v2_pilot2,"",8,Age of Building,2,63,New,New,4235,1750,2021-10-24 23:24:33,1684
5daa748f1fee4c0016b1ab7a,ma_choice_v2_pilot2,"",10,Size of Yard,2,75,None,Very Large,9574,30631,2021-10-24 23:24:36,1685
5f21c29511084913913af654,ma_choice_v2_pilot2,"",10,Size of Yard,2,51,Large,Large,3555,13789,2021-10-24 23:24:50,1686
5daa748f1fee4c0016b1ab7a,ma_choice_v2_pilot2,"",16,Size of Home,2,63,2000 square feet,400 square feet,7409,9874,2021-10-24 23:24:53,1687
5f21c29511084913913af654,ma_choice_v2_pilot2,"",16,Size of Home,2,50,1200 square feet,1200 square feet,6899,3761,2021-10-24 23:25:01,1688
5f21c29511084913913af654,ma_choice_v2_pilot2,"",2,Proximity to Parks,2,0,5 min,5 min,2710,3497,2021-10-24 23:25:07,1689
5daa748f1fee4c0016b1ab7a,ma_choice_v2_pilot2,"",11,Fireplace,2,0,Yes,No,6389,10587,2021-10-24 23:25:10,1690
5f21c29511084913913af654,ma_choice_v2_pilot2,"",0,Number of Bedrooms,2,37,3 bdrm,3 bdrm,3888,1721,2021-10-24 23:25:13,1691
5f21c29511084913913af654,ma_choice_v2_pilot2,"",1,Size of Garage,2,76,Medium,Medium,4854,3417,2021-10-24 23:25:21,1692
5f21c29511084913913af654,ma_choice_v2_pilot2,"",4,Proximity to Waterfront/Beaches,2,0,10 min,10 min,2716,3476,2021-10-24 23:25:27,1693
5daa748f1fee4c0016b1ab7a,ma_choice_v2_pilot2,"",8,Age of Building,2,1,New,Medium,9366,11574,2021-10-24 23:25:31,1694
5f21c29511084913913af654,ma_choice_v2_pilot2,"",7,Amount of Natural Light,2,61,A Lot,A Lot,5555,2051,2021-10-24 23:25:35,1695
5f21c29511084913913af654,ma_choice_v2_pilot2,"",3,Proximity to Cafes/Restaurants,2,0,5 min,5 min,6932,2577,2021-10-24 23:25:44,1696
