subject,version,assignmentId,trial,attribute,original_or_followup,signed_weights,full_or_lex,rating,least_preferred,most_preferred,rt,rt2,stamp,id
5eb1f6fc96a926357133cbb1,ma_choice_v3_real1,5eb1f6fc96a926357133cbb1,5,Amount of natural light,original,2,2,88,,,4977,,2022-01-27 17:41:54,3727
5eb1f6fc96a926357133cbb1,ma_choice_v3_real1,5eb1f6fc96a926357133cbb1,3,Noise pollution,original,2,2,24,,,2786,,2022-01-27 17:41:57,3728
5eb1f6fc96a926357133cbb1,ma_choice_v3_real1,5eb1f6fc96a926357133cbb1,9,Quality of heat/AC system,original,2,2,64,,,3211,,2022-01-27 17:42:00,3729
5eb1f6fc96a926357133cbb1,ma_choice_v3_real1,5eb1f6fc96a926357133cbb1,6,Year building was built,original,2,2,0,,,3096,,2022-01-27 17:42:03,3730
5eb1f6fc96a926357133cbb1,ma_choice_v3_real1,5eb1f6fc96a926357133cbb1,11,Size of home,original,2,2,0,,,3093,,2022-01-27 17:42:06,3731
5eb1f6fc96a926357133cbb1,ma_choice_v3_real1,5eb1f6fc96a926357133cbb1,2,Closeness to public transportation,original,2,2,59,,,2436,,2022-01-27 17:42:09,3732
5eb1f6fc96a926357133cbb1,ma_choice_v3_real1,5eb1f6fc96a926357133cbb1,1,Closeness to cafes/restaurants,original,2,2,55,,,2638,,2022-01-27 17:42:11,3733
5eb1f6fc96a926357133cbb1,ma_choice_v3_real1,5eb1f6fc96a926357133cbb1,7,Size of yard,original,2,2,0,,,3122,,2022-01-27 17:42:15,3734
5eb1f6fc96a926357133cbb1,ma_choice_v3_real1,5eb1f6fc96a926357133cbb1,4,Reputation of closest school,original,2,2,0,,,3068,,2022-01-27 17:42:18,3735
5eb1f6fc96a926357133cbb1,ma_choice_v3_real1,5eb1f6fc96a926357133cbb1,8,Washer/dryer in unit,original,2,2,85,,,2840,,2022-01-27 17:42:21,3736
5eb1f6fc96a926357133cbb1,ma_choice_v3_real1,5eb1f6fc96a926357133cbb1,10,Amount of traffic,original,2,2,12,,,2717,,2022-01-27 17:42:23,3737
5eb1f6fc96a926357133cbb1,ma_choice_v3_real1,5eb1f6fc96a926357133cbb1,0,Closeness to parks,original,2,2,76,,,2594,,2022-01-27 17:42:26,3738
5eb1f6fc96a926357133cbb1,ma_choice_v3_real1,5eb1f6fc96a926357133cbb1,11,Size of home,followup,2,2,,,,,,2022-01-27 17:42:44,3739
5eb1f6fc96a926357133cbb1,ma_choice_v3_real1,5eb1f6fc96a926357133cbb1,9,Quality of heat/AC system,followup,2,2,,,,,,2022-01-27 17:42:44,3740
5eb1f6fc96a926357133cbb1,ma_choice_v3_real1,5eb1f6fc96a926357133cbb1,3,Noise pollution,followup,2,2,,,,,,2022-01-27 17:42:44,3741
5eb1f6fc96a926357133cbb1,ma_choice_v3_real1,5eb1f6fc96a926357133cbb1,2,Closeness to public transportation,followup,2,2,,,,,,2022-01-27 17:42:44,3742
5eb1f6fc96a926357133cbb1,ma_choice_v3_real1,5eb1f6fc96a926357133cbb1,4,Reputation of closest school,followup,2,2,,,,,,2022-01-27 17:42:44,3743
5eb1f6fc96a926357133cbb1,ma_choice_v3_real1,5eb1f6fc96a926357133cbb1,0,Closeness to parks,followup,2,2,,,,,,2022-01-27 17:42:44,3744
5eb1f6fc96a926357133cbb1,ma_choice_v3_real1,5eb1f6fc96a926357133cbb1,10,Amount of traffic,followup,2,2,,,,,,2022-01-27 17:42:44,3745
5eb1f6fc96a926357133cbb1,ma_choice_v3_real1,5eb1f6fc96a926357133cbb1,1,Closeness to cafes/restaurants,followup,2,2,,,,,,2022-01-27 17:42:44,3746
5eb1f6fc96a926357133cbb1,ma_choice_v3_real1,5eb1f6fc96a926357133cbb1,8,Washer/dryer in unit,followup,2,2,,,,,,2022-01-27 17:42:44,3747
5eb1f6fc96a926357133cbb1,ma_choice_v3_real1,5eb1f6fc96a926357133cbb1,6,Year building was built,followup,2,2,,,,,,2022-01-27 17:42:44,3748
5eb1f6fc96a926357133cbb1,ma_choice_v3_real1,5eb1f6fc96a926357133cbb1,5,Amount of natural light,followup,2,2,,,,,,2022-01-27 17:42:44,3749
5eb1f6fc96a926357133cbb1,ma_choice_v3_real1,5eb1f6fc96a926357133cbb1,7,Size of yard,followup,2,2,,,,,,2022-01-27 17:42:44,3750
5eb1f6fc96a926357133cbb1,ma_choice_v3_real1,5eb1f6fc96a926357133cbb1,6,Year building was built,direction,2,2,-1,1985,1950,33010,,2022-01-27 17:43:52,3751
5eb1f6fc96a926357133cbb1,ma_choice_v3_real1,5eb1f6fc96a926357133cbb1,9,Quality of heat/AC system,direction,2,2,-1,Very Good,Very Bad,6192,,2022-01-27 17:43:58,3752
5eb1f6fc96a926357133cbb1,ma_choice_v3_real1,5eb1f6fc96a926357133cbb1,1,Closeness to cafes/restaurants,direction,2,2,-1,10 min away,30 min away,5910,,2022-01-27 17:44:04,3753
5eb1f6fc96a926357133cbb1,ma_choice_v3_real1,5eb1f6fc96a926357133cbb1,2,Closeness to public transportation,direction,2,2,-1,10 min away,30 min away,6083,,2022-01-27 17:44:10,3754
5eb1f6fc96a926357133cbb1,ma_choice_v3_real1,5eb1f6fc96a926357133cbb1,11,Size of home,direction,2,2,-1,1200 square feet,600 square feet,8185,,2022-01-27 17:44:18,3755
5eb1f6fc96a926357133cbb1,ma_choice_v3_real1,5eb1f6fc96a926357133cbb1,3,Noise pollution,direction,2,2,-1,Very Low,Very High,6059,,2022-01-27 17:44:24,3756
5eb1f6fc96a926357133cbb1,ma_choice_v3_real1,5eb1f6fc96a926357133cbb1,10,Amount of traffic,direction,2,2,-1,Very Little,A Lot,14521,,2022-01-27 17:44:39,3757
5eb1f6fc96a926357133cbb1,ma_choice_v3_real1,5eb1f6fc96a926357133cbb1,7,Size of yard,direction,2,2,-1,300 square feet,600 square feet,5396,,2022-01-27 17:44:44,3758
5eb1f6fc96a926357133cbb1,ma_choice_v3_real1,5eb1f6fc96a926357133cbb1,4,Reputation of closest school,direction,2,2,-1,Very Good,Very Bad,6579,,2022-01-27 17:44:51,3759
5eb1f6fc96a926357133cbb1,ma_choice_v3_real1,5eb1f6fc96a926357133cbb1,8,Washer/dryer in unit,direction,2,2,-1,Yes,No,3098,,2022-01-27 17:44:54,3760
5eb1f6fc96a926357133cbb1,ma_choice_v3_real1,5eb1f6fc96a926357133cbb1,5,Amount of natural light,direction,2,2,-1,A Lot,Very Little,4050,,2022-01-27 17:44:58,3761
5eb1f6fc96a926357133cbb1,ma_choice_v3_real1,5eb1f6fc96a926357133cbb1,0,Closeness to parks,direction,2,2,-1,10 min away,30 min away,4657,,2022-01-27 17:45:03,3762
5ef8e0fc2ce3c6644665e347,ma_choice_v3_real1,5ef8e0fc2ce3c6644665e347,3,Noise pollution,original,2,2,63,,,5763,,2022-01-27 18:04:46,3763
5ef8e0fc2ce3c6644665e347,ma_choice_v3_real1,5ef8e0fc2ce3c6644665e347,2,Closeness to public transportation,original,2,2,12,,,4897,,2022-01-27 18:04:51,3764
5ef8e0fc2ce3c6644665e347,ma_choice_v3_real1,5ef8e0fc2ce3c6644665e347,10,Amount of traffic,original,2,2,24,,,3297,,2022-01-27 18:04:54,3765
5ef8e0fc2ce3c6644665e347,ma_choice_v3_real1,5ef8e0fc2ce3c6644665e347,6,Year building was built,original,2,2,37,,,3706,,2022-01-27 18:04:58,3766
5ef8e0fc2ce3c6644665e347,ma_choice_v3_real1,5ef8e0fc2ce3c6644665e347,4,Reputation of closest school,original,2,2,37,,,3916,,2022-01-27 18:05:02,3767
5ef8e0fc2ce3c6644665e347,ma_choice_v3_real1,5ef8e0fc2ce3c6644665e347,11,Size of home,original,2,2,25,,,4083,,2022-01-27 18:05:06,3768
5ef8e0fc2ce3c6644665e347,ma_choice_v3_real1,5ef8e0fc2ce3c6644665e347,9,Quality of heat/AC system,original,2,2,51,,,3236,,2022-01-27 18:05:09,3769
5ef8e0fc2ce3c6644665e347,ma_choice_v3_real1,5ef8e0fc2ce3c6644665e347,5,Amount of natural light,original,2,2,0,,,4477,,2022-01-27 18:05:14,3770
5ef8e0fc2ce3c6644665e347,ma_choice_v3_real1,5ef8e0fc2ce3c6644665e347,7,Size of yard,original,2,2,13,,,3870,,2022-01-27 18:05:18,3771
5ef8e0fc2ce3c6644665e347,ma_choice_v3_real1,5ef8e0fc2ce3c6644665e347,8,Washer/dryer in unit,original,2,2,87,,,3989,,2022-01-27 18:05:22,3772
5ef8e0fc2ce3c6644665e347,ma_choice_v3_real1,5ef8e0fc2ce3c6644665e347,0,Closeness to parks,original,2,2,0,,,5093,,2022-01-27 18:05:27,3773
5ef8e0fc2ce3c6644665e347,ma_choice_v3_real1,5ef8e0fc2ce3c6644665e347,1,Closeness to cafes/restaurants,original,2,2,13,,,4311,,2022-01-27 18:05:31,3774
5ef8e0fc2ce3c6644665e347,ma_choice_v3_real1,5ef8e0fc2ce3c6644665e347,4,Reputation of closest school,followup,2,2,,,,,,2022-01-27 18:05:52,3775
5ef8e0fc2ce3c6644665e347,ma_choice_v3_real1,5ef8e0fc2ce3c6644665e347,11,Size of home,followup,2,2,,,,,,2022-01-27 18:05:52,3776
5ef8e0fc2ce3c6644665e347,ma_choice_v3_real1,5ef8e0fc2ce3c6644665e347,7,Size of yard,followup,2,2,,,,,,2022-01-27 18:05:52,3777
5ef8e0fc2ce3c6644665e347,ma_choice_v3_real1,5ef8e0fc2ce3c6644665e347,3,Noise pollution,followup,2,2,,,,,,2022-01-27 18:05:52,3778
5ef8e0fc2ce3c6644665e347,ma_choice_v3_real1,5ef8e0fc2ce3c6644665e347,1,Closeness to cafes/restaurants,followup,2,2,,,,,,2022-01-27 18:05:52,3779
5ef8e0fc2ce3c6644665e347,ma_choice_v3_real1,5ef8e0fc2ce3c6644665e347,5,Amount of natural light,followup,2,2,,,,,,2022-01-27 18:05:52,3780
5ef8e0fc2ce3c6644665e347,ma_choice_v3_real1,5ef8e0fc2ce3c6644665e347,9,Quality of heat/AC system,followup,2,2,,,,,,2022-01-27 18:05:52,3781
5ef8e0fc2ce3c6644665e347,ma_choice_v3_real1,5ef8e0fc2ce3c6644665e347,0,Closeness to parks,followup,2,2,,,,,,2022-01-27 18:05:52,3782
5ef8e0fc2ce3c6644665e347,ma_choice_v3_real1,5ef8e0fc2ce3c6644665e347,8,Washer/dryer in unit,followup,2,2,,,,,,2022-01-27 18:05:52,3783
5ef8e0fc2ce3c6644665e347,ma_choice_v3_real1,5ef8e0fc2ce3c6644665e347,2,Closeness to public transportation,followup,2,2,,,,,,2022-01-27 18:05:52,3784
5ef8e0fc2ce3c6644665e347,ma_choice_v3_real1,5ef8e0fc2ce3c6644665e347,6,Year building was built,followup,2,2,,,,,,2022-01-27 18:05:52,3785
5ef8e0fc2ce3c6644665e347,ma_choice_v3_real1,5ef8e0fc2ce3c6644665e347,10,Amount of traffic,followup,2,2,,,,,,2022-01-27 18:05:52,3786
5ef8e0fc2ce3c6644665e347,ma_choice_v3_real1,5ef8e0fc2ce3c6644665e347,1,Closeness to cafes/restaurants,direction,2,2,-1,20 min away,30 min away,15808,,2022-01-27 18:07:20,3787
5ef8e0fc2ce3c6644665e347,ma_choice_v3_real1,5ef8e0fc2ce3c6644665e347,3,Noise pollution,direction,2,2,-1,Very Low,Very High,13321,,2022-01-27 18:07:34,3788
5ef8e0fc2ce3c6644665e347,ma_choice_v3_real1,5ef8e0fc2ce3c6644665e347,0,Closeness to parks,direction,2,2,-1,20 min away,15 min away,16086,,2022-01-27 18:07:50,3789
5ef8e0fc2ce3c6644665e347,ma_choice_v3_real1,5ef8e0fc2ce3c6644665e347,9,Quality of heat/AC system,direction,2,2,-1,Moderate,Very Bad,11814,,2022-01-27 18:08:02,3790
5ef8e0fc2ce3c6644665e347,ma_choice_v3_real1,5ef8e0fc2ce3c6644665e347,10,Amount of traffic,direction,2,2,-1,A Little,A Lot,9847,,2022-01-27 18:08:11,3791
5ef8e0fc2ce3c6644665e347,ma_choice_v3_real1,5ef8e0fc2ce3c6644665e347,8,Washer/dryer in unit,direction,2,2,-1,Yes,No,6631,,2022-01-27 18:08:18,3792
5ef8e0fc2ce3c6644665e347,ma_choice_v3_real1,5ef8e0fc2ce3c6644665e347,6,Year building was built,direction,2,2,-1,2020,1950,7024,,2022-01-27 18:08:25,3793
5ef8e0fc2ce3c6644665e347,ma_choice_v3_real1,5ef8e0fc2ce3c6644665e347,4,Reputation of closest school,direction,2,2,-1,Good,Very Bad,5488,,2022-01-27 18:08:31,3794
5ef8e0fc2ce3c6644665e347,ma_choice_v3_real1,5ef8e0fc2ce3c6644665e347,5,Amount of natural light,direction,2,2,-1,Very Little,A Lot,4606,,2022-01-27 18:08:35,3795
5ef8e0fc2ce3c6644665e347,ma_choice_v3_real1,5ef8e0fc2ce3c6644665e347,11,Size of home,direction,2,2,-1,1800 square feet,600 square feet,4570,,2022-01-27 18:08:40,3796
5ef8e0fc2ce3c6644665e347,ma_choice_v3_real1,5ef8e0fc2ce3c6644665e347,2,Closeness to public transportation,direction,2,2,-1,10 min away,30 min away,5508,,2022-01-27 18:08:45,3797
5ef8e0fc2ce3c6644665e347,ma_choice_v3_real1,5ef8e0fc2ce3c6644665e347,7,Size of yard,direction,2,2,-1,300 square feet,0 square feet,9320,,2022-01-27 18:08:55,3798
5de6766e89d6b4000f71bc0d,ma_choice_v3_real1,5de6766e89d6b4000f71bc0d,11,Size of home,original,2,2,0,,,8867,,2022-01-27 18:11:00,3799
5de6766e89d6b4000f71bc0d,ma_choice_v3_real1,5de6766e89d6b4000f71bc0d,3,Noise pollution,original,2,2,0,,,3669,,2022-01-27 18:11:03,3800
5de6766e89d6b4000f71bc0d,ma_choice_v3_real1,5de6766e89d6b4000f71bc0d,5,Amount of natural light,original,2,2,88,,,6889,,2022-01-27 18:11:10,3801
5de6766e89d6b4000f71bc0d,ma_choice_v3_real1,5de6766e89d6b4000f71bc0d,8,Washer/dryer in unit,original,2,2,88,,,3440,,2022-01-27 18:11:14,3802
5de6766e89d6b4000f71bc0d,ma_choice_v3_real1,5de6766e89d6b4000f71bc0d,0,Closeness to parks,original,2,2,0,,,7470,,2022-01-27 18:11:21,3803
61552af1eebae76e5666aba0,ma_choice_v3_real1,61552af1eebae76e5666aba0,3,Noise pollution,original,2,2,75,,,5285,,2022-01-27 18:11:23,3804
5de6766e89d6b4000f71bc0d,ma_choice_v3_real1,5de6766e89d6b4000f71bc0d,7,Size of yard,original,2,2,0,,,2965,,2022-01-27 18:11:24,3805
5de6766e89d6b4000f71bc0d,ma_choice_v3_real1,5de6766e89d6b4000f71bc0d,10,Amount of traffic,original,2,2,0,,,2706,,2022-01-27 18:11:27,3806
61552af1eebae76e5666aba0,ma_choice_v3_real1,61552af1eebae76e5666aba0,2,Closeness to public transportation,original,2,2,62,,,5095,,2022-01-27 18:11:28,3807
5de6766e89d6b4000f71bc0d,ma_choice_v3_real1,5de6766e89d6b4000f71bc0d,1,Closeness to cafes/restaurants,original,2,2,0,,,3265,,2022-01-27 18:11:30,3808
61552af1eebae76e5666aba0,ma_choice_v3_real1,61552af1eebae76e5666aba0,6,Year building was built,original,2,2,13,,,3905,,2022-01-27 18:11:32,3809
5de6766e89d6b4000f71bc0d,ma_choice_v3_real1,5de6766e89d6b4000f71bc0d,4,Reputation of closest school,original,2,2,0,,,2958,,2022-01-27 18:11:33,3810
61552af1eebae76e5666aba0,ma_choice_v3_real1,61552af1eebae76e5666aba0,10,Amount of traffic,original,2,2,0,,,3070,,2022-01-27 18:11:35,3811
61552af1eebae76e5666aba0,ma_choice_v3_real1,61552af1eebae76e5666aba0,0,Closeness to parks,original,2,2,24,,,2999,,2022-01-27 18:11:38,3812
5de6766e89d6b4000f71bc0d,ma_choice_v3_real1,5de6766e89d6b4000f71bc0d,9,Quality of heat/AC system,original,2,2,88,,,5372,,2022-01-27 18:11:38,3813
5de6766e89d6b4000f71bc0d,ma_choice_v3_real1,5de6766e89d6b4000f71bc0d,6,Year building was built,original,2,2,0,,,2953,,2022-01-27 18:11:41,3814
61552af1eebae76e5666aba0,ma_choice_v3_real1,61552af1eebae76e5666aba0,5,Amount of natural light,original,2,2,36,,,4024,,2022-01-27 18:11:42,3815
5de6766e89d6b4000f71bc0d,ma_choice_v3_real1,5de6766e89d6b4000f71bc0d,2,Closeness to public transportation,original,2,2,0,,,3698,,2022-01-27 18:11:45,3816
61552af1eebae76e5666aba0,ma_choice_v3_real1,61552af1eebae76e5666aba0,7,Size of yard,original,2,2,13,,,4040,,2022-01-27 18:11:46,3817
61552af1eebae76e5666aba0,ma_choice_v3_real1,61552af1eebae76e5666aba0,9,Quality of heat/AC system,original,2,2,75,,,5261,,2022-01-27 18:11:52,3818
61552af1eebae76e5666aba0,ma_choice_v3_real1,61552af1eebae76e5666aba0,8,Washer/dryer in unit,original,2,2,49,,,4114,,2022-01-27 18:11:56,3819
61552af1eebae76e5666aba0,ma_choice_v3_real1,61552af1eebae76e5666aba0,11,Size of home,original,2,2,62,,,4314,,2022-01-27 18:12:00,3820
61552af1eebae76e5666aba0,ma_choice_v3_real1,61552af1eebae76e5666aba0,1,Closeness to cafes/restaurants,original,2,2,12,,,5448,,2022-01-27 18:12:05,3821
61552af1eebae76e5666aba0,ma_choice_v3_real1,61552af1eebae76e5666aba0,4,Reputation of closest school,original,2,2,63,,,4316,,2022-01-27 18:12:10,3822
5de6766e89d6b4000f71bc0d,ma_choice_v3_real1,5de6766e89d6b4000f71bc0d,3,Noise pollution,followup,2,2,,,,,,2022-01-27 18:12:16,3823
5de6766e89d6b4000f71bc0d,ma_choice_v3_real1,5de6766e89d6b4000f71bc0d,9,Quality of heat/AC system,followup,2,2,,,,,,2022-01-27 18:12:16,3824
5de6766e89d6b4000f71bc0d,ma_choice_v3_real1,5de6766e89d6b4000f71bc0d,4,Reputation of closest school,followup,2,2,,,,,,2022-01-27 18:12:16,3825
5de6766e89d6b4000f71bc0d,ma_choice_v3_real1,5de6766e89d6b4000f71bc0d,0,Closeness to parks,followup,2,2,,,,,,2022-01-27 18:12:16,3826
5de6766e89d6b4000f71bc0d,ma_choice_v3_real1,5de6766e89d6b4000f71bc0d,6,Year building was built,followup,2,2,,,,,,2022-01-27 18:12:16,3827
5de6766e89d6b4000f71bc0d,ma_choice_v3_real1,5de6766e89d6b4000f71bc0d,7,Size of yard,followup,2,2,,,,,,2022-01-27 18:12:16,3828
5de6766e89d6b4000f71bc0d,ma_choice_v3_real1,5de6766e89d6b4000f71bc0d,10,Amount of traffic,followup,2,2,,,,,,2022-01-27 18:12:16,3829
5de6766e89d6b4000f71bc0d,ma_choice_v3_real1,5de6766e89d6b4000f71bc0d,2,Closeness to public transportation,followup,2,2,,,,,,2022-01-27 18:12:16,3830
5de6766e89d6b4000f71bc0d,ma_choice_v3_real1,5de6766e89d6b4000f71bc0d,1,Closeness to cafes/restaurants,followup,2,2,,,,,,2022-01-27 18:12:16,3831
5de6766e89d6b4000f71bc0d,ma_choice_v3_real1,5de6766e89d6b4000f71bc0d,11,Size of home,followup,2,2,,,,,,2022-01-27 18:12:16,3832
5de6766e89d6b4000f71bc0d,ma_choice_v3_real1,5de6766e89d6b4000f71bc0d,8,Washer/dryer in unit,followup,2,2,,,,,,2022-01-27 18:12:16,3833
5de6766e89d6b4000f71bc0d,ma_choice_v3_real1,5de6766e89d6b4000f71bc0d,5,Amount of natural light,followup,2,2,,,,,,2022-01-27 18:12:16,3834
61552af1eebae76e5666aba0,ma_choice_v3_real1,61552af1eebae76e5666aba0,11,Size of home,followup,2,2,,,,,,2022-01-27 18:12:25,3835
61552af1eebae76e5666aba0,ma_choice_v3_real1,61552af1eebae76e5666aba0,7,Size of yard,followup,2,2,,,,,,2022-01-27 18:12:25,3836
61552af1eebae76e5666aba0,ma_choice_v3_real1,61552af1eebae76e5666aba0,2,Closeness to public transportation,followup,2,2,,,,,,2022-01-27 18:12:25,3837
61552af1eebae76e5666aba0,ma_choice_v3_real1,61552af1eebae76e5666aba0,9,Quality of heat/AC system,followup,2,2,,,,,,2022-01-27 18:12:25,3838
61552af1eebae76e5666aba0,ma_choice_v3_real1,61552af1eebae76e5666aba0,4,Reputation of closest school,followup,2,2,,,,,,2022-01-27 18:12:25,3839
61552af1eebae76e5666aba0,ma_choice_v3_real1,61552af1eebae76e5666aba0,6,Year building was built,followup,2,2,,,,,,2022-01-27 18:12:25,3840
61552af1eebae76e5666aba0,ma_choice_v3_real1,61552af1eebae76e5666aba0,0,Closeness to parks,followup,2,2,,,,,,2022-01-27 18:12:25,3841
61552af1eebae76e5666aba0,ma_choice_v3_real1,61552af1eebae76e5666aba0,1,Closeness to cafes/restaurants,followup,2,2,,,,,,2022-01-27 18:12:25,3842
61552af1eebae76e5666aba0,ma_choice_v3_real1,61552af1eebae76e5666aba0,5,Amount of natural light,followup,2,2,,,,,,2022-01-27 18:12:25,3843
61552af1eebae76e5666aba0,ma_choice_v3_real1,61552af1eebae76e5666aba0,8,Washer/dryer in unit,followup,2,2,,,,,,2022-01-27 18:12:25,3844
61552af1eebae76e5666aba0,ma_choice_v3_real1,61552af1eebae76e5666aba0,10,Amount of traffic,followup,2,2,,,,,,2022-01-27 18:12:25,3845
61552af1eebae76e5666aba0,ma_choice_v3_real1,61552af1eebae76e5666aba0,3,Noise pollution,followup,2,2,,,,,,2022-01-27 18:12:25,3846
61552af1eebae76e5666aba0,ma_choice_v3_real1,61552af1eebae76e5666aba0,4,Reputation of closest school,direction,2,2,-1,Very Good,Very Bad,8389,,2022-01-27 18:13:20,3847
61552af1eebae76e5666aba0,ma_choice_v3_real1,61552af1eebae76e5666aba0,2,Closeness to public transportation,direction,2,2,-1,10 min away,30 min away,8493,,2022-01-27 18:13:28,3848
61552af1eebae76e5666aba0,ma_choice_v3_real1,61552af1eebae76e5666aba0,8,Washer/dryer in unit,direction,2,2,-1,Yes,No,7430,,2022-01-27 18:13:35,3849
61552af1eebae76e5666aba0,ma_choice_v3_real1,61552af1eebae76e5666aba0,1,Closeness to cafes/restaurants,direction,2,2,-1,10 min away,30 min away,8945,,2022-01-27 18:13:44,3850
596e1af7a09655000197d4bb,ma_choice_v3_real1,596e1af7a09655000197d4bb,1,Closeness to cafes/restaurants,original,2,2,25,,,3540,,2022-01-27 18:13:46,3851
596e1af7a09655000197d4bb,ma_choice_v3_real1,596e1af7a09655000197d4bb,9,Quality of heat/AC system,original,2,2,92,,,3218,,2022-01-27 18:13:49,3852
61552af1eebae76e5666aba0,ma_choice_v3_real1,61552af1eebae76e5666aba0,0,Closeness to parks,direction,2,2,-1,10 min away,30 min away,6709,,2022-01-27 18:13:51,3853
596e1af7a09655000197d4bb,ma_choice_v3_real1,596e1af7a09655000197d4bb,8,Washer/dryer in unit,original,2,2,87,,,2508,,2022-01-27 18:13:51,3854
596e1af7a09655000197d4bb,ma_choice_v3_real1,596e1af7a09655000197d4bb,2,Closeness to public transportation,original,2,2,25,,,2410,,2022-01-27 18:13:54,3855
596e1af7a09655000197d4bb,ma_choice_v3_real1,596e1af7a09655000197d4bb,7,Size of yard,original,2,2,45,,,2164,,2022-01-27 18:13:56,3856
61552af1eebae76e5666aba0,ma_choice_v3_real1,61552af1eebae76e5666aba0,9,Quality of heat/AC system,direction,2,2,-1,Very Good,Very Bad,6162,,2022-01-27 18:13:57,3857
596e1af7a09655000197d4bb,ma_choice_v3_real1,596e1af7a09655000197d4bb,11,Size of home,original,2,2,63,,,2106,,2022-01-27 18:13:58,3858
596e1af7a09655000197d4bb,ma_choice_v3_real1,596e1af7a09655000197d4bb,5,Amount of natural light,original,2,2,59,,,1889,,2022-01-27 18:14:00,3859
596e1af7a09655000197d4bb,ma_choice_v3_real1,596e1af7a09655000197d4bb,0,Closeness to parks,original,2,2,25,,,2038,,2022-01-27 18:14:02,3860
61552af1eebae76e5666aba0,ma_choice_v3_real1,61552af1eebae76e5666aba0,3,Noise pollution,direction,2,2,-1,Very Low,Very High,5523,,2022-01-27 18:14:03,3861
596e1af7a09655000197d4bb,ma_choice_v3_real1,596e1af7a09655000197d4bb,10,Amount of traffic,original,2,2,27,,,2025,,2022-01-27 18:14:04,3862
596e1af7a09655000197d4bb,ma_choice_v3_real1,596e1af7a09655000197d4bb,4,Reputation of closest school,original,2,2,13,,,1741,,2022-01-27 18:14:06,3863
61552af1eebae76e5666aba0,ma_choice_v3_real1,61552af1eebae76e5666aba0,7,Size of yard,direction,2,2,-1,600 square feet,0 square feet,5698,,2022-01-27 18:14:08,3864
596e1af7a09655000197d4bb,ma_choice_v3_real1,596e1af7a09655000197d4bb,3,Noise pollution,original,2,2,33,,,4226,,2022-01-27 18:14:10,3865
596e1af7a09655000197d4bb,ma_choice_v3_real1,596e1af7a09655000197d4bb,6,Year building was built,original,2,2,58,,,2811,,2022-01-27 18:14:13,3866
61552af1eebae76e5666aba0,ma_choice_v3_real1,61552af1eebae76e5666aba0,5,Amount of natural light,direction,2,2,-1,A Lot,Very Little,5097,,2022-01-27 18:14:14,3867
61552af1eebae76e5666aba0,ma_choice_v3_real1,61552af1eebae76e5666aba0,6,Year building was built,direction,2,2,-1,2020,1950,6742,,2022-01-27 18:14:20,3868
596e1af7a09655000197d4bb,ma_choice_v3_real1,596e1af7a09655000197d4bb,5,Amount of natural light,followup,2,2,,,,,,2022-01-27 18:14:26,3869
596e1af7a09655000197d4bb,ma_choice_v3_real1,596e1af7a09655000197d4bb,4,Reputation of closest school,followup,2,2,,,,,,2022-01-27 18:14:26,3870
596e1af7a09655000197d4bb,ma_choice_v3_real1,596e1af7a09655000197d4bb,0,Closeness to parks,followup,2,2,,,,,,2022-01-27 18:14:26,3871
596e1af7a09655000197d4bb,ma_choice_v3_real1,596e1af7a09655000197d4bb,7,Size of yard,followup,2,2,,,,,,2022-01-27 18:14:26,3872
596e1af7a09655000197d4bb,ma_choice_v3_real1,596e1af7a09655000197d4bb,9,Quality of heat/AC system,followup,2,2,,,,,,2022-01-27 18:14:26,3873
596e1af7a09655000197d4bb,ma_choice_v3_real1,596e1af7a09655000197d4bb,6,Year building was built,followup,2,2,,,,,,2022-01-27 18:14:26,3874
596e1af7a09655000197d4bb,ma_choice_v3_real1,596e1af7a09655000197d4bb,11,Size of home,followup,2,2,,,,,,2022-01-27 18:14:26,3875
596e1af7a09655000197d4bb,ma_choice_v3_real1,596e1af7a09655000197d4bb,1,Closeness to cafes/restaurants,followup,2,2,,,,,,2022-01-27 18:14:26,3876
596e1af7a09655000197d4bb,ma_choice_v3_real1,596e1af7a09655000197d4bb,8,Washer/dryer in unit,followup,2,2,,,,,,2022-01-27 18:14:27,3877
596e1af7a09655000197d4bb,ma_choice_v3_real1,596e1af7a09655000197d4bb,3,Noise pollution,followup,2,2,,,,,,2022-01-27 18:14:27,3878
596e1af7a09655000197d4bb,ma_choice_v3_real1,596e1af7a09655000197d4bb,10,Amount of traffic,followup,2,2,,,,,,2022-01-27 18:14:27,3879
596e1af7a09655000197d4bb,ma_choice_v3_real1,596e1af7a09655000197d4bb,2,Closeness to public transportation,followup,2,2,,,,,,2022-01-27 18:14:27,3880
61552af1eebae76e5666aba0,ma_choice_v3_real1,61552af1eebae76e5666aba0,10,Amount of traffic,direction,2,2,-1,Very Little,A Lot,9839,,2022-01-27 18:14:30,3881
61552af1eebae76e5666aba0,ma_choice_v3_real1,61552af1eebae76e5666aba0,11,Size of home,direction,2,2,-1,1800 square feet,600 square feet,4633,,2022-01-27 18:14:35,3882
596e1af7a09655000197d4bb,ma_choice_v3_real1,596e1af7a09655000197d4bb,1,Closeness to cafes/restaurants,direction,2,2,-1,15 min away,30 min away,12316,,2022-01-27 18:15:03,3883
596e1af7a09655000197d4bb,ma_choice_v3_real1,596e1af7a09655000197d4bb,11,Size of home,direction,2,2,-1,1800 square feet,600 square feet,7012,,2022-01-27 18:15:10,3884
596e1af7a09655000197d4bb,ma_choice_v3_real1,596e1af7a09655000197d4bb,4,Reputation of closest school,direction,2,2,-1,Moderate,Moderate,4708,,2022-01-27 18:15:15,3885
596e1af7a09655000197d4bb,ma_choice_v3_real1,596e1af7a09655000197d4bb,10,Amount of traffic,direction,2,2,-1,A Little,A Lot,7204,,2022-01-27 18:15:22,3886
596e1af7a09655000197d4bb,ma_choice_v3_real1,596e1af7a09655000197d4bb,8,Washer/dryer in unit,direction,2,2,-1,Yes,No,5524,,2022-01-27 18:15:28,3887
596e1af7a09655000197d4bb,ma_choice_v3_real1,596e1af7a09655000197d4bb,7,Size of yard,direction,2,2,-1,600 square feet,0 square feet,4550,,2022-01-27 18:15:32,3888
5de6766e89d6b4000f71bc0d,ma_choice_v3_real1,5de6766e89d6b4000f71bc0d,10,Amount of traffic,direction,2,2,-1,A Little,A Lot,42528,,2022-01-27 18:15:33,3889
596e1af7a09655000197d4bb,ma_choice_v3_real1,596e1af7a09655000197d4bb,2,Closeness to public transportation,direction,2,2,-1,15 min away,25 min away,6027,,2022-01-27 18:15:39,3890
5de6766e89d6b4000f71bc0d,ma_choice_v3_real1,5de6766e89d6b4000f71bc0d,9,Quality of heat/AC system,direction,2,2,-1,Very Good,Very Bad,9277,,2022-01-27 18:15:43,3891
596e1af7a09655000197d4bb,ma_choice_v3_real1,596e1af7a09655000197d4bb,3,Noise pollution,direction,2,2,-1,Moderate,Very High,5067,,2022-01-27 18:15:44,3892
596e1af7a09655000197d4bb,ma_choice_v3_real1,596e1af7a09655000197d4bb,0,Closeness to parks,direction,2,2,-1,15 min away,30 min away,5278,,2022-01-27 18:15:49,3893
596e1af7a09655000197d4bb,ma_choice_v3_real1,596e1af7a09655000197d4bb,6,Year building was built,direction,2,2,-1,2020,1950,4533,,2022-01-27 18:15:53,3894
5de6766e89d6b4000f71bc0d,ma_choice_v3_real1,5de6766e89d6b4000f71bc0d,6,Year building was built,direction,2,2,-1,1950,1985,13273,,2022-01-27 18:15:56,3895
596e1af7a09655000197d4bb,ma_choice_v3_real1,596e1af7a09655000197d4bb,5,Amount of natural light,direction,2,2,-1,A Lot,Very Little,3219,,2022-01-27 18:15:57,3896
596e1af7a09655000197d4bb,ma_choice_v3_real1,596e1af7a09655000197d4bb,9,Quality of heat/AC system,direction,2,2,-1,Very Good,Very Bad,2643,,2022-01-27 18:15:59,3897
5de6766e89d6b4000f71bc0d,ma_choice_v3_real1,5de6766e89d6b4000f71bc0d,1,Closeness to cafes/restaurants,direction,2,2,-1,10 min away,30 min away,11761,,2022-01-27 18:16:08,3898
5de6766e89d6b4000f71bc0d,ma_choice_v3_real1,5de6766e89d6b4000f71bc0d,0,Closeness to parks,direction,2,2,-1,10 min away,30 min away,8303,,2022-01-27 18:16:16,3899
5de6766e89d6b4000f71bc0d,ma_choice_v3_real1,5de6766e89d6b4000f71bc0d,2,Closeness to public transportation,direction,2,2,-1,10 min away,30 min away,6897,,2022-01-27 18:16:23,3900
5de6766e89d6b4000f71bc0d,ma_choice_v3_real1,5de6766e89d6b4000f71bc0d,3,Noise pollution,direction,2,2,-1,Very Low,Very High,6669,,2022-01-27 18:16:30,3901
5de6766e89d6b4000f71bc0d,ma_choice_v3_real1,5de6766e89d6b4000f71bc0d,7,Size of yard,direction,2,2,-1,600 square feet,0 square feet,7614,,2022-01-27 18:16:37,3902
5de6766e89d6b4000f71bc0d,ma_choice_v3_real1,5de6766e89d6b4000f71bc0d,8,Washer/dryer in unit,direction,2,2,-1,Yes,No,6000,,2022-01-27 18:16:43,3903
5de6766e89d6b4000f71bc0d,ma_choice_v3_real1,5de6766e89d6b4000f71bc0d,5,Amount of natural light,direction,2,2,-1,A Lot,Very Little,22273,,2022-01-27 18:17:06,3904
5de6766e89d6b4000f71bc0d,ma_choice_v3_real1,5de6766e89d6b4000f71bc0d,11,Size of home,direction,2,2,-1,1200 square feet,1800 square feet,62980,,2022-01-27 18:18:09,3905
5de6766e89d6b4000f71bc0d,ma_choice_v3_real1,5de6766e89d6b4000f71bc0d,4,Reputation of closest school,direction,2,2,-1,Very Good,Very Bad,10411,,2022-01-27 18:18:19,3906
60242bdb4097360ad464addc,ma_choice_v3_real1,60242bdb4097360ad464addc,0,Reputation of closest school,original,,1,1,,,7375,,2022-01-27 18:19:27,3907
60242bdb4097360ad464addc,ma_choice_v3_real1,60242bdb4097360ad464addc,8,Washer/dryer in unit,followup,,1,5,,,17688,,2022-01-27 18:20:11,3908
60242bdb4097360ad464addc,ma_choice_v3_real1,60242bdb4097360ad464addc,5,Amount of natural light,followup,,1,16,,,4615,,2022-01-27 18:20:15,3909
60242bdb4097360ad464addc,ma_choice_v3_real1,60242bdb4097360ad464addc,11,Size of home,followup,,1,38,,,3298,,2022-01-27 18:20:19,3910
60242bdb4097360ad464addc,ma_choice_v3_real1,60242bdb4097360ad464addc,4,Reputation of closest school,followup,,1,100,,,3285,,2022-01-27 18:20:22,3911
60242bdb4097360ad464addc,ma_choice_v3_real1,60242bdb4097360ad464addc,7,Size of yard,followup,,1,28,,,6004,,2022-01-27 18:20:28,3912
60242bdb4097360ad464addc,ma_choice_v3_real1,60242bdb4097360ad464addc,2,Closeness to public transportation,followup,,1,0,,,4631,,2022-01-27 18:20:33,3913
60242bdb4097360ad464addc,ma_choice_v3_real1,60242bdb4097360ad464addc,3,Noise pollution,followup,,1,21,,,3557,,2022-01-27 18:20:36,3914
60242bdb4097360ad464addc,ma_choice_v3_real1,60242bdb4097360ad464addc,0,Closeness to parks,followup,,1,17,,,3589,,2022-01-27 18:20:40,3915
60242bdb4097360ad464addc,ma_choice_v3_real1,60242bdb4097360ad464addc,6,Year building was built,followup,,1,22,,,3186,,2022-01-27 18:20:43,3916
60242bdb4097360ad464addc,ma_choice_v3_real1,60242bdb4097360ad464addc,9,Quality of heat/AC system,followup,,1,0,,,2953,,2022-01-27 18:20:46,3917
60242bdb4097360ad464addc,ma_choice_v3_real1,60242bdb4097360ad464addc,10,Amount of traffic,followup,,1,11,,,4173,,2022-01-27 18:20:50,3918
60242bdb4097360ad464addc,ma_choice_v3_real1,60242bdb4097360ad464addc,1,Closeness to cafes/restaurants,followup,,1,3,,,3034,,2022-01-27 18:20:53,3919
60242bdb4097360ad464addc,ma_choice_v3_real1,60242bdb4097360ad464addc,11,Size of home,direction,,1,-1,1800 square feet,600 square feet,9242,,2022-01-27 18:21:32,3920
60242bdb4097360ad464addc,ma_choice_v3_real1,60242bdb4097360ad464addc,1,Closeness to cafes/restaurants,direction,,1,-1,15 min away,30 min away,10752,,2022-01-27 18:21:42,3921
60242bdb4097360ad464addc,ma_choice_v3_real1,60242bdb4097360ad464addc,10,Amount of traffic,direction,,1,-1,Very Little,A Lot,6369,,2022-01-27 18:21:49,3922
60242bdb4097360ad464addc,ma_choice_v3_real1,60242bdb4097360ad464addc,4,Reputation of closest school,direction,,1,-1,Very Good,Very Bad,4785,,2022-01-27 18:21:54,3923
60242bdb4097360ad464addc,ma_choice_v3_real1,60242bdb4097360ad464addc,0,Closeness to parks,direction,,1,-1,10 min away,30 min away,6075,,2022-01-27 18:22:00,3924
60242bdb4097360ad464addc,ma_choice_v3_real1,60242bdb4097360ad464addc,2,Closeness to public transportation,direction,,1,-1,20 min away,10 min away,14844,,2022-01-27 18:22:15,3925
60242bdb4097360ad464addc,ma_choice_v3_real1,60242bdb4097360ad464addc,3,Noise pollution,direction,,1,-1,Very Low,Very High,4474,,2022-01-27 18:22:19,3926
60242bdb4097360ad464addc,ma_choice_v3_real1,60242bdb4097360ad464addc,6,Year building was built,direction,,1,-1,2020,1950,4210,,2022-01-27 18:22:23,3927
60242bdb4097360ad464addc,ma_choice_v3_real1,60242bdb4097360ad464addc,5,Amount of natural light,direction,,1,-1,A Moderate Amount,Very Little,5098,,2022-01-27 18:22:28,3928
60242bdb4097360ad464addc,ma_choice_v3_real1,60242bdb4097360ad464addc,7,Size of yard,direction,,1,-1,600 square feet,0 square feet,9886,,2022-01-27 18:22:38,3929
60242bdb4097360ad464addc,ma_choice_v3_real1,60242bdb4097360ad464addc,9,Quality of heat/AC system,direction,,1,-1,Very Good,Very Bad,6170,,2022-01-27 18:22:45,3930
60242bdb4097360ad464addc,ma_choice_v3_real1,60242bdb4097360ad464addc,8,Washer/dryer in unit,direction,,1,-1,Yes,No,4403,,2022-01-27 18:22:49,3931
61002caab8bc99b527252504,ma_choice_v3_real1,61002caab8bc99b527252504,0,Washer/dryer in unit,original,,1,1,,,5205,,2022-01-27 18:30:46,3932
61002caab8bc99b527252504,ma_choice_v3_real1,61002caab8bc99b527252504,0,Closeness to parks,followup,,1,0,,,4934,,2022-01-27 18:31:23,3933
61002caab8bc99b527252504,ma_choice_v3_real1,61002caab8bc99b527252504,11,Size of home,followup,,1,25,,,4964,,2022-01-27 18:31:28,3934
61002caab8bc99b527252504,ma_choice_v3_real1,61002caab8bc99b527252504,6,Year building was built,followup,,1,0,,,3345,,2022-01-27 18:31:31,3935
61002caab8bc99b527252504,ma_choice_v3_real1,61002caab8bc99b527252504,4,Reputation of closest school,followup,,1,1,,,3967,,2022-01-27 18:31:35,3936
61002caab8bc99b527252504,ma_choice_v3_real1,61002caab8bc99b527252504,9,Quality of heat/AC system,followup,,1,12,,,3384,,2022-01-27 18:31:38,3937
61002caab8bc99b527252504,ma_choice_v3_real1,61002caab8bc99b527252504,8,Washer/dryer in unit,followup,,1,100,,,4102,,2022-01-27 18:31:43,3938
61002caab8bc99b527252504,ma_choice_v3_real1,61002caab8bc99b527252504,5,Amount of natural light,followup,,1,23,,,3288,,2022-01-27 18:31:46,3939
61002caab8bc99b527252504,ma_choice_v3_real1,61002caab8bc99b527252504,2,Closeness to public transportation,followup,,1,0,,,2993,,2022-01-27 18:31:49,3940
61002caab8bc99b527252504,ma_choice_v3_real1,61002caab8bc99b527252504,10,Amount of traffic,followup,,1,0,,,2221,,2022-01-27 18:31:51,3941
61002caab8bc99b527252504,ma_choice_v3_real1,61002caab8bc99b527252504,7,Size of yard,followup,,1,0,,,2509,,2022-01-27 18:31:54,3942
61002caab8bc99b527252504,ma_choice_v3_real1,61002caab8bc99b527252504,3,Noise pollution,followup,,1,0,,,2780,,2022-01-27 18:31:56,3943
61002caab8bc99b527252504,ma_choice_v3_real1,61002caab8bc99b527252504,1,Closeness to cafes/restaurants,followup,,1,1,,,3649,,2022-01-27 18:32:00,3944
61002caab8bc99b527252504,ma_choice_v3_real1,61002caab8bc99b527252504,0,Closeness to parks,direction,,1,-1,30 min away,20 min away,16834,,2022-01-27 18:33:04,3945
61002caab8bc99b527252504,ma_choice_v3_real1,61002caab8bc99b527252504,3,Noise pollution,direction,,1,-1,Moderate,Very High,9969,,2022-01-27 18:33:13,3946
61002caab8bc99b527252504,ma_choice_v3_real1,61002caab8bc99b527252504,9,Quality of heat/AC system,direction,,1,-1,Good,Very Bad,8409,,2022-01-27 18:33:22,3947
5e7fe0a46db6e86cd7c6b213,ma_choice_v3_real1,5e7fe0a46db6e86cd7c6b213,2,Closeness to public transportation,original,2,2,100,,,4755,,2022-01-27 18:33:24,3948
61002caab8bc99b527252504,ma_choice_v3_real1,61002caab8bc99b527252504,5,Amount of natural light,direction,,1,-1,A Lot,Very Little,7682,,2022-01-27 18:33:30,3949
5e7fe0a46db6e86cd7c6b213,ma_choice_v3_real1,5e7fe0a46db6e86cd7c6b213,8,Washer/dryer in unit,original,2,2,49,,,6380,,2022-01-27 18:33:30,3950
5e7fe0a46db6e86cd7c6b213,ma_choice_v3_real1,5e7fe0a46db6e86cd7c6b213,3,Noise pollution,original,2,2,88,,,3925,,2022-01-27 18:33:34,3951
61002caab8bc99b527252504,ma_choice_v3_real1,61002caab8bc99b527252504,8,Washer/dryer in unit,direction,,1,-1,Yes,No,6932,,2022-01-27 18:33:37,3952
5e7fe0a46db6e86cd7c6b213,ma_choice_v3_real1,5e7fe0a46db6e86cd7c6b213,1,Closeness to cafes/restaurants,original,2,2,12,,,3503,,2022-01-27 18:33:38,3953
5e7fe0a46db6e86cd7c6b213,ma_choice_v3_real1,5e7fe0a46db6e86cd7c6b213,10,Amount of traffic,original,2,2,13,,,2655,,2022-01-27 18:33:40,3954
61002caab8bc99b527252504,ma_choice_v3_real1,61002caab8bc99b527252504,6,Year building was built,direction,,1,-1,2020,1950,6973,,2022-01-27 18:33:44,3955
5e7fe0a46db6e86cd7c6b213,ma_choice_v3_real1,5e7fe0a46db6e86cd7c6b213,4,Reputation of closest school,original,2,2,0,,,3277,,2022-01-27 18:33:44,3956
5e7fe0a46db6e86cd7c6b213,ma_choice_v3_real1,5e7fe0a46db6e86cd7c6b213,0,Closeness to parks,original,2,2,0,,,3413,,2022-01-27 18:33:47,3957
5e7fe0a46db6e86cd7c6b213,ma_choice_v3_real1,5e7fe0a46db6e86cd7c6b213,6,Year building was built,original,2,2,0,,,3709,,2022-01-27 18:33:51,3958
61002caab8bc99b527252504,ma_choice_v3_real1,61002caab8bc99b527252504,2,Closeness to public transportation,direction,,1,-1,25 min away,20 min away,9873,,2022-01-27 18:33:53,3959
5e7fe0a46db6e86cd7c6b213,ma_choice_v3_real1,5e7fe0a46db6e86cd7c6b213,5,Amount of natural light,original,2,2,0,,,3244,,2022-01-27 18:33:54,3960
5e7fe0a46db6e86cd7c6b213,ma_choice_v3_real1,5e7fe0a46db6e86cd7c6b213,7,Size of yard,original,2,2,0,,,3406,,2022-01-27 18:33:57,3961
61002caab8bc99b527252504,ma_choice_v3_real1,61002caab8bc99b527252504,11,Size of home,direction,,1,-1,1200 square feet,600 square feet,5681,,2022-01-27 18:33:59,3962
5e7fe0a46db6e86cd7c6b213,ma_choice_v3_real1,5e7fe0a46db6e86cd7c6b213,11,Size of home,original,2,2,0,,,3201,,2022-01-27 18:34:01,3963
61002caab8bc99b527252504,ma_choice_v3_real1,61002caab8bc99b527252504,7,Size of yard,direction,,1,-1,300 square feet,0 square feet,5466,,2022-01-27 18:34:05,3964
5e7fe0a46db6e86cd7c6b213,ma_choice_v3_real1,5e7fe0a46db6e86cd7c6b213,9,Quality of heat/AC system,original,2,2,75,,,4168,,2022-01-27 18:34:05,3965
61002caab8bc99b527252504,ma_choice_v3_real1,61002caab8bc99b527252504,4,Reputation of closest school,direction,,1,-1,Moderate,Very Bad,5791,,2022-01-27 18:34:10,3966
61002caab8bc99b527252504,ma_choice_v3_real1,61002caab8bc99b527252504,1,Closeness to cafes/restaurants,direction,,1,-1,15 min away,30 min away,8334,,2022-01-27 18:34:19,3967
5e7fe0a46db6e86cd7c6b213,ma_choice_v3_real1,5e7fe0a46db6e86cd7c6b213,4,Reputation of closest school,followup,2,2,,,,,,2022-01-27 18:34:20,3968
5e7fe0a46db6e86cd7c6b213,ma_choice_v3_real1,5e7fe0a46db6e86cd7c6b213,3,Noise pollution,followup,2,2,,,,,,2022-01-27 18:34:20,3969
5e7fe0a46db6e86cd7c6b213,ma_choice_v3_real1,5e7fe0a46db6e86cd7c6b213,11,Size of home,followup,2,2,,,,,,2022-01-27 18:34:20,3970
5e7fe0a46db6e86cd7c6b213,ma_choice_v3_real1,5e7fe0a46db6e86cd7c6b213,10,Amount of traffic,followup,2,2,,,,,,2022-01-27 18:34:20,3971
5e7fe0a46db6e86cd7c6b213,ma_choice_v3_real1,5e7fe0a46db6e86cd7c6b213,9,Quality of heat/AC system,followup,2,2,,,,,,2022-01-27 18:34:20,3972
5e7fe0a46db6e86cd7c6b213,ma_choice_v3_real1,5e7fe0a46db6e86cd7c6b213,5,Amount of natural light,followup,2,2,,,,,,2022-01-27 18:34:20,3973
5e7fe0a46db6e86cd7c6b213,ma_choice_v3_real1,5e7fe0a46db6e86cd7c6b213,8,Washer/dryer in unit,followup,2,2,,,,,,2022-01-27 18:34:20,3974
5e7fe0a46db6e86cd7c6b213,ma_choice_v3_real1,5e7fe0a46db6e86cd7c6b213,7,Size of yard,followup,2,2,,,,,,2022-01-27 18:34:20,3975
5e7fe0a46db6e86cd7c6b213,ma_choice_v3_real1,5e7fe0a46db6e86cd7c6b213,6,Year building was built,followup,2,2,,,,,,2022-01-27 18:34:20,3976
5e7fe0a46db6e86cd7c6b213,ma_choice_v3_real1,5e7fe0a46db6e86cd7c6b213,0,Closeness to parks,followup,2,2,,,,,,2022-01-27 18:34:20,3977
5e7fe0a46db6e86cd7c6b213,ma_choice_v3_real1,5e7fe0a46db6e86cd7c6b213,2,Closeness to public transportation,followup,2,2,,,,,,2022-01-27 18:34:20,3978
5e7fe0a46db6e86cd7c6b213,ma_choice_v3_real1,5e7fe0a46db6e86cd7c6b213,1,Closeness to cafes/restaurants,followup,2,2,,,,,,2022-01-27 18:34:20,3979
61002caab8bc99b527252504,ma_choice_v3_real1,61002caab8bc99b527252504,10,Amount of traffic,direction,,1,-1,A Little,A Lot,9289,,2022-01-27 18:34:28,3980
568e7e33e3ef9e000da202a7,ma_choice_v3_real1,568e7e33e3ef9e000da202a7,11,Size of home,original,2,2,49,,,4729,,2022-01-27 18:34:29,3981
568e7e33e3ef9e000da202a7,ma_choice_v3_real1,568e7e33e3ef9e000da202a7,10,Amount of traffic,original,2,2,21,,,3026,,2022-01-27 18:34:32,3982
568e7e33e3ef9e000da202a7,ma_choice_v3_real1,568e7e33e3ef9e000da202a7,7,Size of yard,original,2,2,25,,,2858,,2022-01-27 18:34:34,3983
568e7e33e3ef9e000da202a7,ma_choice_v3_real1,568e7e33e3ef9e000da202a7,1,Closeness to cafes/restaurants,original,2,2,49,,,2639,,2022-01-27 18:34:36,3984
568e7e33e3ef9e000da202a7,ma_choice_v3_real1,568e7e33e3ef9e000da202a7,8,Washer/dryer in unit,original,2,2,22,,,2764,,2022-01-27 18:34:39,3985
568e7e33e3ef9e000da202a7,ma_choice_v3_real1,568e7e33e3ef9e000da202a7,2,Closeness to public transportation,original,2,2,0,,,2889,,2022-01-27 18:34:42,3986
568e7e33e3ef9e000da202a7,ma_choice_v3_real1,568e7e33e3ef9e000da202a7,5,Amount of natural light,original,2,2,49,,,2678,,2022-01-27 18:34:45,3987
568e7e33e3ef9e000da202a7,ma_choice_v3_real1,568e7e33e3ef9e000da202a7,3,Noise pollution,original,2,2,48,,,3124,,2022-01-27 18:34:48,3988
568e7e33e3ef9e000da202a7,ma_choice_v3_real1,568e7e33e3ef9e000da202a7,9,Quality of heat/AC system,original,2,2,100,,,3123,,2022-01-27 18:34:51,3989
568e7e33e3ef9e000da202a7,ma_choice_v3_real1,568e7e33e3ef9e000da202a7,4,Reputation of closest school,original,2,2,48,,,5818,,2022-01-27 18:34:57,3990
5e7fe0a46db6e86cd7c6b213,ma_choice_v3_real1,5e7fe0a46db6e86cd7c6b213,3,Noise pollution,direction,2,2,-1,Very Low,Moderate,10461,,2022-01-27 18:34:58,3991
568e7e33e3ef9e000da202a7,ma_choice_v3_real1,568e7e33e3ef9e000da202a7,0,Closeness to parks,original,2,2,0,,,2802,,2022-01-27 18:35:00,3992
568e7e33e3ef9e000da202a7,ma_choice_v3_real1,568e7e33e3ef9e000da202a7,6,Year building was built,original,2,2,61,,,2802,,2022-01-27 18:35:02,3993
5e7fe0a46db6e86cd7c6b213,ma_choice_v3_real1,5e7fe0a46db6e86cd7c6b213,9,Quality of heat/AC system,direction,2,2,-1,Very Good,Very Bad,11778,,2022-01-27 18:35:10,3994
568e7e33e3ef9e000da202a7,ma_choice_v3_real1,568e7e33e3ef9e000da202a7,3,Noise pollution,followup,2,2,,,,,,2022-01-27 18:35:13,3995
568e7e33e3ef9e000da202a7,ma_choice_v3_real1,568e7e33e3ef9e000da202a7,2,Closeness to public transportation,followup,2,2,,,,,,2022-01-27 18:35:13,3996
568e7e33e3ef9e000da202a7,ma_choice_v3_real1,568e7e33e3ef9e000da202a7,7,Size of yard,followup,2,2,,,,,,2022-01-27 18:35:13,3997
568e7e33e3ef9e000da202a7,ma_choice_v3_real1,568e7e33e3ef9e000da202a7,11,Size of home,followup,2,2,,,,,,2022-01-27 18:35:13,3998
568e7e33e3ef9e000da202a7,ma_choice_v3_real1,568e7e33e3ef9e000da202a7,8,Washer/dryer in unit,followup,2,2,,,,,,2022-01-27 18:35:13,3999
568e7e33e3ef9e000da202a7,ma_choice_v3_real1,568e7e33e3ef9e000da202a7,4,Reputation of closest school,followup,2,2,,,,,,2022-01-27 18:35:13,4000
568e7e33e3ef9e000da202a7,ma_choice_v3_real1,568e7e33e3ef9e000da202a7,0,Closeness to parks,followup,2,2,,,,,,2022-01-27 18:35:13,4001
568e7e33e3ef9e000da202a7,ma_choice_v3_real1,568e7e33e3ef9e000da202a7,1,Closeness to cafes/restaurants,followup,2,2,,,,,,2022-01-27 18:35:13,4002
568e7e33e3ef9e000da202a7,ma_choice_v3_real1,568e7e33e3ef9e000da202a7,9,Quality of heat/AC system,followup,2,2,,,,,,2022-01-27 18:35:13,4003
568e7e33e3ef9e000da202a7,ma_choice_v3_real1,568e7e33e3ef9e000da202a7,10,Amount of traffic,followup,2,2,,,,,,2022-01-27 18:35:13,4004
568e7e33e3ef9e000da202a7,ma_choice_v3_real1,568e7e33e3ef9e000da202a7,5,Amount of natural light,followup,2,2,,,,,,2022-01-27 18:35:13,4005
568e7e33e3ef9e000da202a7,ma_choice_v3_real1,568e7e33e3ef9e000da202a7,6,Year building was built,followup,2,2,,,,,,2022-01-27 18:35:13,4006
5e7fe0a46db6e86cd7c6b213,ma_choice_v3_real1,5e7fe0a46db6e86cd7c6b213,4,Reputation of closest school,direction,2,2,-1,Very Bad,Very Bad,9053,,2022-01-27 18:35:19,4007
5e7fe0a46db6e86cd7c6b213,ma_choice_v3_real1,5e7fe0a46db6e86cd7c6b213,11,Size of home,direction,2,2,-1,1200 square feet,1800 square feet,9553,,2022-01-27 18:35:29,4008
5e7fe0a46db6e86cd7c6b213,ma_choice_v3_real1,5e7fe0a46db6e86cd7c6b213,1,Closeness to cafes/restaurants,direction,2,2,-1,10 min away,30 min away,6321,,2022-01-27 18:35:35,4009
5e7fe0a46db6e86cd7c6b213,ma_choice_v3_real1,5e7fe0a46db6e86cd7c6b213,0,Closeness to parks,direction,2,2,-1,10 min away,30 min away,5420,,2022-01-27 18:35:41,4010
568e7e33e3ef9e000da202a7,ma_choice_v3_real1,568e7e33e3ef9e000da202a7,7,Size of yard,direction,2,2,-1,300 square feet,0 square feet,8728,,2022-01-27 18:35:41,4011
568e7e33e3ef9e000da202a7,ma_choice_v3_real1,568e7e33e3ef9e000da202a7,5,Amount of natural light,direction,2,2,-1,A Moderate Amount,Very Little,5209,,2022-01-27 18:35:46,4012
5e7fe0a46db6e86cd7c6b213,ma_choice_v3_real1,5e7fe0a46db6e86cd7c6b213,6,Year building was built,direction,2,2,-1,1985,1950,8536,,2022-01-27 18:35:49,4013
568e7e33e3ef9e000da202a7,ma_choice_v3_real1,568e7e33e3ef9e000da202a7,9,Quality of heat/AC system,direction,2,2,-1,Very Good,Very Bad,5266,,2022-01-27 18:35:52,4014
5e7fe0a46db6e86cd7c6b213,ma_choice_v3_real1,5e7fe0a46db6e86cd7c6b213,8,Washer/dryer in unit,direction,2,2,-1,Yes,No,5223,,2022-01-27 18:35:54,4015
568e7e33e3ef9e000da202a7,ma_choice_v3_real1,568e7e33e3ef9e000da202a7,4,Reputation of closest school,direction,2,2,-1,Good,Very Bad,5283,,2022-01-27 18:35:57,4016
5e7fe0a46db6e86cd7c6b213,ma_choice_v3_real1,5e7fe0a46db6e86cd7c6b213,10,Amount of traffic,direction,2,2,-1,A Little,A Lot,9113,,2022-01-27 18:36:04,4017
5e7fe0a46db6e86cd7c6b213,ma_choice_v3_real1,5e7fe0a46db6e86cd7c6b213,2,Closeness to public transportation,direction,2,2,-1,10 min away,30 min away,5472,,2022-01-27 18:36:09,4018
568e7e33e3ef9e000da202a7,ma_choice_v3_real1,568e7e33e3ef9e000da202a7,2,Closeness to public transportation,direction,2,2,-1,10 min away,30 min away,13564,,2022-01-27 18:36:10,4019
568e7e33e3ef9e000da202a7,ma_choice_v3_real1,568e7e33e3ef9e000da202a7,10,Amount of traffic,direction,2,2,-1,A Little,A Lot,5646,,2022-01-27 18:36:16,4020
5e7fe0a46db6e86cd7c6b213,ma_choice_v3_real1,5e7fe0a46db6e86cd7c6b213,5,Amount of natural light,direction,2,2,-1,A Moderate Amount,Very Little,9021,,2022-01-27 18:36:18,4021
568e7e33e3ef9e000da202a7,ma_choice_v3_real1,568e7e33e3ef9e000da202a7,11,Size of home,direction,2,2,-1,1200 square feet,600 square feet,5180,,2022-01-27 18:36:21,4022
5e7fe0a46db6e86cd7c6b213,ma_choice_v3_real1,5e7fe0a46db6e86cd7c6b213,7,Size of yard,direction,2,2,-1,300 square feet,600 square feet,9194,,2022-01-27 18:36:27,4023
568e7e33e3ef9e000da202a7,ma_choice_v3_real1,568e7e33e3ef9e000da202a7,1,Closeness to cafes/restaurants,direction,2,2,-1,15 min away,30 min away,6068,,2022-01-27 18:36:27,4024
568e7e33e3ef9e000da202a7,ma_choice_v3_real1,568e7e33e3ef9e000da202a7,3,Noise pollution,direction,2,2,-1,Very Low,Very High,5538,,2022-01-27 18:36:33,4025
568e7e33e3ef9e000da202a7,ma_choice_v3_real1,568e7e33e3ef9e000da202a7,0,Closeness to parks,direction,2,2,-1,10 min away,30 min away,4764,,2022-01-27 18:36:38,4026
568e7e33e3ef9e000da202a7,ma_choice_v3_real1,568e7e33e3ef9e000da202a7,6,Year building was built,direction,2,2,-1,2020,1950,4384,,2022-01-27 18:36:42,4027
568e7e33e3ef9e000da202a7,ma_choice_v3_real1,568e7e33e3ef9e000da202a7,8,Washer/dryer in unit,direction,2,2,-1,Yes,No,3418,,2022-01-27 18:36:45,4028
606537639bc40e88e953c584,ma_choice_v3_real1,606537639bc40e88e953c584,0,Size of yard,original,,1,1,,,10004,,2022-01-27 18:37:02,4029
606537639bc40e88e953c584,ma_choice_v3_real1,606537639bc40e88e953c584,9,Quality of heat/AC system,followup,,1,36,,,7404,,2022-01-27 18:37:45,4030
606537639bc40e88e953c584,ma_choice_v3_real1,606537639bc40e88e953c584,6,Year building was built,followup,,1,16,,,5711,,2022-01-27 18:37:51,4031
606537639bc40e88e953c584,ma_choice_v3_real1,606537639bc40e88e953c584,7,Size of yard,followup,,1,75,,,5111,,2022-01-27 18:37:56,4032
606537639bc40e88e953c584,ma_choice_v3_real1,606537639bc40e88e953c584,5,Amount of natural light,followup,,1,33,,,4476,,2022-01-27 18:38:00,4033
606537639bc40e88e953c584,ma_choice_v3_real1,606537639bc40e88e953c584,11,Size of home,followup,,1,87,,,3553,,2022-01-27 18:38:04,4034
606537639bc40e88e953c584,ma_choice_v3_real1,606537639bc40e88e953c584,3,Noise pollution,followup,,1,14,,,3886,,2022-01-27 18:38:08,4035
606537639bc40e88e953c584,ma_choice_v3_real1,606537639bc40e88e953c584,1,Closeness to cafes/restaurants,followup,,1,7,,,4413,,2022-01-27 18:38:12,4036
606537639bc40e88e953c584,ma_choice_v3_real1,606537639bc40e88e953c584,4,Reputation of closest school,followup,,1,1,,,4669,,2022-01-27 18:38:17,4037
606537639bc40e88e953c584,ma_choice_v3_real1,606537639bc40e88e953c584,10,Amount of traffic,followup,,1,13,,,4492,,2022-01-27 18:38:21,4038
606537639bc40e88e953c584,ma_choice_v3_real1,606537639bc40e88e953c584,2,Closeness to public transportation,followup,,1,12,,,4020,,2022-01-27 18:38:25,4039
606537639bc40e88e953c584,ma_choice_v3_real1,606537639bc40e88e953c584,0,Closeness to parks,followup,,1,3,,,4121,,2022-01-27 18:38:29,4040
606537639bc40e88e953c584,ma_choice_v3_real1,606537639bc40e88e953c584,8,Washer/dryer in unit,followup,,1,20,,,4007,,2022-01-27 18:38:33,4041
606537639bc40e88e953c584,ma_choice_v3_real1,606537639bc40e88e953c584,1,Closeness to cafes/restaurants,direction,,1,-1,25 min away,15 min away,17310,,2022-01-27 18:39:38,4042
606537639bc40e88e953c584,ma_choice_v3_real1,606537639bc40e88e953c584,5,Amount of natural light,direction,,1,-1,Very Little,Very Little,18288,,2022-01-27 18:39:57,4043
606537639bc40e88e953c584,ma_choice_v3_real1,606537639bc40e88e953c584,11,Size of home,direction,,1,-1,1800 square feet,1800 square feet,9293,,2022-01-27 18:40:06,4044
606537639bc40e88e953c584,ma_choice_v3_real1,606537639bc40e88e953c584,6,Year building was built,direction,,1,-1,1985,1985,13336,,2022-01-27 18:40:19,4045
606537639bc40e88e953c584,ma_choice_v3_real1,606537639bc40e88e953c584,4,Reputation of closest school,direction,,1,-1,Very Bad,Very Good,12914,,2022-01-27 18:40:32,4046
606537639bc40e88e953c584,ma_choice_v3_real1,606537639bc40e88e953c584,0,Closeness to parks,direction,,1,-1,20 min away,30 min away,15721,,2022-01-27 18:40:48,4047
606537639bc40e88e953c584,ma_choice_v3_real1,606537639bc40e88e953c584,2,Closeness to public transportation,direction,,1,-1,10 min away,30 min away,8776,,2022-01-27 18:40:57,4048
606537639bc40e88e953c584,ma_choice_v3_real1,606537639bc40e88e953c584,9,Quality of heat/AC system,direction,,1,-1,Good,Very Bad,12776,,2022-01-27 18:41:10,4049
606537639bc40e88e953c584,ma_choice_v3_real1,606537639bc40e88e953c584,10,Amount of traffic,direction,,1,-1,A Little,A Moderate Amount,11223,,2022-01-27 18:41:21,4050
606537639bc40e88e953c584,ma_choice_v3_real1,606537639bc40e88e953c584,8,Washer/dryer in unit,direction,,1,-1,Yes,No,9675,,2022-01-27 18:41:31,4051
606537639bc40e88e953c584,ma_choice_v3_real1,606537639bc40e88e953c584,3,Noise pollution,direction,,1,-1,Low,High,15321,,2022-01-27 18:41:46,4052
606537639bc40e88e953c584,ma_choice_v3_real1,606537639bc40e88e953c584,7,Size of yard,direction,,1,-1,600 square feet,0 square feet,11421,,2022-01-27 18:41:57,4053
5b5a822e1ad8270001c4f28d,ma_choice_v3_real1,5b5a822e1ad8270001c4f28d,10,Amount of traffic,original,2,2,61,,,13247,,2022-01-27 18:42:59,4054
5b5a822e1ad8270001c4f28d,ma_choice_v3_real1,5b5a822e1ad8270001c4f28d,3,Noise pollution,original,2,2,27,,,9437,,2022-01-27 18:43:08,4055
5b5a822e1ad8270001c4f28d,ma_choice_v3_real1,5b5a822e1ad8270001c4f28d,0,Closeness to parks,original,2,2,50,,,8618,,2022-01-27 18:43:17,4056
5a8599792a842c0001fcbacb,ma_choice_v3_real1,5a8599792a842c0001fcbacb,8,Washer/dryer in unit,original,2,2,50,,,3518,,2022-01-27 18:43:18,4057
5a8599792a842c0001fcbacb,ma_choice_v3_real1,5a8599792a842c0001fcbacb,2,Closeness to public transportation,original,2,2,1,,,2716,,2022-01-27 18:43:21,4058
5a8599792a842c0001fcbacb,ma_choice_v3_real1,5a8599792a842c0001fcbacb,11,Size of home,original,2,2,74,,,2188,,2022-01-27 18:43:23,4059
5b5a822e1ad8270001c4f28d,ma_choice_v3_real1,5b5a822e1ad8270001c4f28d,4,Reputation of closest school,original,2,2,47,,,6395,,2022-01-27 18:43:23,4060
5a8599792a842c0001fcbacb,ma_choice_v3_real1,5a8599792a842c0001fcbacb,1,Closeness to cafes/restaurants,original,2,2,0,,,3133,,2022-01-27 18:43:26,4061
603fa7d057d382087d66d1c2,ma_choice_v3_real1,603fa7d057d382087d66d1c2,4,Reputation of closest school,original,2,2,50,,,4595,,2022-01-27 18:43:26,4062
603fa7d057d382087d66d1c2,ma_choice_v3_real1,603fa7d057d382087d66d1c2,2,Closeness to public transportation,original,2,2,0,,,3338,,2022-01-27 18:43:30,4063
5a8599792a842c0001fcbacb,ma_choice_v3_real1,5a8599792a842c0001fcbacb,7,Size of yard,original,2,2,68,,,3762,,2022-01-27 18:43:30,4064
5b5a822e1ad8270001c4f28d,ma_choice_v3_real1,5b5a822e1ad8270001c4f28d,6,Year building was built,original,2,2,70,,,7399,,2022-01-27 18:43:31,4065
5a8599792a842c0001fcbacb,ma_choice_v3_real1,5a8599792a842c0001fcbacb,6,Year building was built,original,2,2,38,,,2673,,2022-01-27 18:43:32,4066
603fa7d057d382087d66d1c2,ma_choice_v3_real1,603fa7d057d382087d66d1c2,8,Washer/dryer in unit,original,2,2,17,,,3595,,2022-01-27 18:43:33,4067
5a8599792a842c0001fcbacb,ma_choice_v3_real1,5a8599792a842c0001fcbacb,10,Amount of traffic,original,2,2,24,,,2529,,2022-01-27 18:43:35,4068
603fa7d057d382087d66d1c2,ma_choice_v3_real1,603fa7d057d382087d66d1c2,7,Size of yard,original,2,2,13,,,2868,,2022-01-27 18:43:36,4069
5b5a822e1ad8270001c4f28d,ma_choice_v3_real1,5b5a822e1ad8270001c4f28d,2,Closeness to public transportation,original,2,2,50,,,7733,,2022-01-27 18:43:39,4070
5a8599792a842c0001fcbacb,ma_choice_v3_real1,5a8599792a842c0001fcbacb,9,Quality of heat/AC system,original,2,2,48,,,4021,,2022-01-27 18:43:39,4071
603fa7d057d382087d66d1c2,ma_choice_v3_real1,603fa7d057d382087d66d1c2,5,Amount of natural light,original,2,2,75,,,5025,,2022-01-27 18:43:41,4072
5a8599792a842c0001fcbacb,ma_choice_v3_real1,5a8599792a842c0001fcbacb,3,Noise pollution,original,2,2,37,,,2358,,2022-01-27 18:43:41,4073
603fa7d057d382087d66d1c2,ma_choice_v3_real1,603fa7d057d382087d66d1c2,3,Noise pollution,original,2,2,6,,,2671,,2022-01-27 18:43:44,4074
5a8599792a842c0001fcbacb,ma_choice_v3_real1,5a8599792a842c0001fcbacb,0,Closeness to parks,original,2,2,24,,,2932,,2022-01-27 18:43:44,4075
5b5a822e1ad8270001c4f28d,ma_choice_v3_real1,5b5a822e1ad8270001c4f28d,11,Size of home,original,2,2,63,,,6662,,2022-01-27 18:43:45,4076
5a8599792a842c0001fcbacb,ma_choice_v3_real1,5a8599792a842c0001fcbacb,4,Reputation of closest school,original,2,2,87,,,3089,,2022-01-27 18:43:47,4077
603fa7d057d382087d66d1c2,ma_choice_v3_real1,603fa7d057d382087d66d1c2,9,Quality of heat/AC system,original,2,2,23,,,3679,,2022-01-27 18:43:47,4078
603fa7d057d382087d66d1c2,ma_choice_v3_real1,603fa7d057d382087d66d1c2,6,Year building was built,original,2,2,50,,,3243,,2022-01-27 18:43:51,4079
5a8599792a842c0001fcbacb,ma_choice_v3_real1,5a8599792a842c0001fcbacb,5,Amount of natural light,original,2,2,37,,,4146,,2022-01-27 18:43:52,4080
5b5a822e1ad8270001c4f28d,ma_choice_v3_real1,5b5a822e1ad8270001c4f28d,7,Size of yard,original,2,2,74,,,7664,,2022-01-27 18:43:53,4081
603fa7d057d382087d66d1c2,ma_choice_v3_real1,603fa7d057d382087d66d1c2,10,Amount of traffic,original,2,2,30,,,2967,,2022-01-27 18:43:54,4082
603fa7d057d382087d66d1c2,ma_choice_v3_real1,603fa7d057d382087d66d1c2,11,Size of home,original,2,2,61,,,2658,,2022-01-27 18:43:56,4083
5b5a822e1ad8270001c4f28d,ma_choice_v3_real1,5b5a822e1ad8270001c4f28d,5,Amount of natural light,original,2,2,38,,,5157,,2022-01-27 18:43:59,4084
5a8599792a842c0001fcbacb,ma_choice_v3_real1,5a8599792a842c0001fcbacb,8,Washer/dryer in unit,followup,2,2,,,,,,2022-01-27 18:43:59,4085
5a8599792a842c0001fcbacb,ma_choice_v3_real1,5a8599792a842c0001fcbacb,5,Amount of natural light,followup,2,2,,,,,,2022-01-27 18:43:59,4086
5a8599792a842c0001fcbacb,ma_choice_v3_real1,5a8599792a842c0001fcbacb,6,Year building was built,followup,2,2,,,,,,2022-01-27 18:43:59,4087
5a8599792a842c0001fcbacb,ma_choice_v3_real1,5a8599792a842c0001fcbacb,7,Size of yard,followup,2,2,,,,,,2022-01-27 18:43:59,4088
5a8599792a842c0001fcbacb,ma_choice_v3_real1,5a8599792a842c0001fcbacb,0,Closeness to parks,followup,2,2,,,,,,2022-01-27 18:43:59,4089
5a8599792a842c0001fcbacb,ma_choice_v3_real1,5a8599792a842c0001fcbacb,4,Reputation of closest school,followup,2,2,,,,,,2022-01-27 18:43:59,4090
5a8599792a842c0001fcbacb,ma_choice_v3_real1,5a8599792a842c0001fcbacb,1,Closeness to cafes/restaurants,followup,2,2,,,,,,2022-01-27 18:43:59,4091
5a8599792a842c0001fcbacb,ma_choice_v3_real1,5a8599792a842c0001fcbacb,2,Closeness to public transportation,followup,2,2,,,,,,2022-01-27 18:43:59,4092
5a8599792a842c0001fcbacb,ma_choice_v3_real1,5a8599792a842c0001fcbacb,10,Amount of traffic,followup,2,2,,,,,,2022-01-27 18:43:59,4093
5a8599792a842c0001fcbacb,ma_choice_v3_real1,5a8599792a842c0001fcbacb,3,Noise pollution,followup,2,2,,,,,,2022-01-27 18:43:59,4094
5a8599792a842c0001fcbacb,ma_choice_v3_real1,5a8599792a842c0001fcbacb,11,Size of home,followup,2,2,,,,,,2022-01-27 18:43:59,4095
5a8599792a842c0001fcbacb,ma_choice_v3_real1,5a8599792a842c0001fcbacb,9,Quality of heat/AC system,followup,2,2,,,,,,2022-01-27 18:43:59,4096
603fa7d057d382087d66d1c2,ma_choice_v3_real1,603fa7d057d382087d66d1c2,1,Closeness to cafes/restaurants,original,2,2,86,,,3835,,2022-01-27 18:44:00,4097
603fa7d057d382087d66d1c2,ma_choice_v3_real1,603fa7d057d382087d66d1c2,0,Closeness to parks,original,2,2,26,,,2338,,2022-01-27 18:44:03,4098
5b5a822e1ad8270001c4f28d,ma_choice_v3_real1,5b5a822e1ad8270001c4f28d,1,Closeness to cafes/restaurants,original,2,2,50,,,5461,,2022-01-27 18:44:04,4099
5b5a822e1ad8270001c4f28d,ma_choice_v3_real1,5b5a822e1ad8270001c4f28d,9,Quality of heat/AC system,original,2,2,50,,,5576,,2022-01-27 18:44:09,4100
5b5a822e1ad8270001c4f28d,ma_choice_v3_real1,5b5a822e1ad8270001c4f28d,8,Washer/dryer in unit,original,2,2,64,,,7030,,2022-01-27 18:44:16,4101
603fa7d057d382087d66d1c2,ma_choice_v3_real1,603fa7d057d382087d66d1c2,10,Amount of traffic,followup,2,2,,,,,,2022-01-27 18:44:19,4102
603fa7d057d382087d66d1c2,ma_choice_v3_real1,603fa7d057d382087d66d1c2,1,Closeness to cafes/restaurants,followup,2,2,,,,,,2022-01-27 18:44:19,4103
603fa7d057d382087d66d1c2,ma_choice_v3_real1,603fa7d057d382087d66d1c2,7,Size of yard,followup,2,2,,,,,,2022-01-27 18:44:19,4104
603fa7d057d382087d66d1c2,ma_choice_v3_real1,603fa7d057d382087d66d1c2,5,Amount of natural light,followup,2,2,,,,,,2022-01-27 18:44:19,4105
603fa7d057d382087d66d1c2,ma_choice_v3_real1,603fa7d057d382087d66d1c2,3,Noise pollution,followup,2,2,,,,,,2022-01-27 18:44:19,4106
603fa7d057d382087d66d1c2,ma_choice_v3_real1,603fa7d057d382087d66d1c2,6,Year building was built,followup,2,2,,,,,,2022-01-27 18:44:19,4107
603fa7d057d382087d66d1c2,ma_choice_v3_real1,603fa7d057d382087d66d1c2,4,Reputation of closest school,followup,2,2,,,,,,2022-01-27 18:44:19,4108
603fa7d057d382087d66d1c2,ma_choice_v3_real1,603fa7d057d382087d66d1c2,11,Size of home,followup,2,2,,,,,,2022-01-27 18:44:19,4109
603fa7d057d382087d66d1c2,ma_choice_v3_real1,603fa7d057d382087d66d1c2,2,Closeness to public transportation,followup,2,2,,,,,,2022-01-27 18:44:19,4110
603fa7d057d382087d66d1c2,ma_choice_v3_real1,603fa7d057d382087d66d1c2,8,Washer/dryer in unit,followup,2,2,,,,,,2022-01-27 18:44:19,4111
603fa7d057d382087d66d1c2,ma_choice_v3_real1,603fa7d057d382087d66d1c2,0,Closeness to parks,followup,2,2,,,,,,2022-01-27 18:44:19,4112
603fa7d057d382087d66d1c2,ma_choice_v3_real1,603fa7d057d382087d66d1c2,9,Quality of heat/AC system,followup,2,2,,,,,,2022-01-27 18:44:19,4113
5a8599792a842c0001fcbacb,ma_choice_v3_real1,5a8599792a842c0001fcbacb,2,Closeness to public transportation,direction,2,2,-1,15 min away,30 min away,13172,,2022-01-27 18:44:40,4114
5b5a822e1ad8270001c4f28d,ma_choice_v3_real1,5b5a822e1ad8270001c4f28d,6,Year building was built,followup,2,2,,,,,,2022-01-27 18:44:59,4115
5b5a822e1ad8270001c4f28d,ma_choice_v3_real1,5b5a822e1ad8270001c4f28d,11,Size of home,followup,2,2,,,,,,2022-01-27 18:44:59,4116
5b5a822e1ad8270001c4f28d,ma_choice_v3_real1,5b5a822e1ad8270001c4f28d,3,Noise pollution,followup,2,2,,,,,,2022-01-27 18:44:59,4117
5b5a822e1ad8270001c4f28d,ma_choice_v3_real1,5b5a822e1ad8270001c4f28d,4,Reputation of closest school,followup,2,2,,,,,,2022-01-27 18:44:59,4118
5b5a822e1ad8270001c4f28d,ma_choice_v3_real1,5b5a822e1ad8270001c4f28d,9,Quality of heat/AC system,followup,2,2,,,,,,2022-01-27 18:44:59,4119
5b5a822e1ad8270001c4f28d,ma_choice_v3_real1,5b5a822e1ad8270001c4f28d,0,Closeness to parks,followup,2,2,,,,,,2022-01-27 18:44:59,4120
5b5a822e1ad8270001c4f28d,ma_choice_v3_real1,5b5a822e1ad8270001c4f28d,7,Size of yard,followup,2,2,,,,,,2022-01-27 18:44:59,4121
5b5a822e1ad8270001c4f28d,ma_choice_v3_real1,5b5a822e1ad8270001c4f28d,5,Amount of natural light,followup,2,2,,,,,,2022-01-27 18:44:59,4122
5b5a822e1ad8270001c4f28d,ma_choice_v3_real1,5b5a822e1ad8270001c4f28d,2,Closeness to public transportation,followup,2,2,,,,,,2022-01-27 18:44:59,4123
5b5a822e1ad8270001c4f28d,ma_choice_v3_real1,5b5a822e1ad8270001c4f28d,8,Washer/dryer in unit,followup,2,2,,,,,,2022-01-27 18:44:59,4124
5b5a822e1ad8270001c4f28d,ma_choice_v3_real1,5b5a822e1ad8270001c4f28d,1,Closeness to cafes/restaurants,followup,2,2,,,,,,2022-01-27 18:44:59,4125
5b5a822e1ad8270001c4f28d,ma_choice_v3_real1,5b5a822e1ad8270001c4f28d,10,Amount of traffic,followup,2,2,,,,,,2022-01-27 18:44:59,4126
5a8599792a842c0001fcbacb,ma_choice_v3_real1,5a8599792a842c0001fcbacb,5,Amount of natural light,direction,2,2,-1,A Moderate Amount,Very Little,20567,,2022-01-27 18:45:01,4127
5a8599792a842c0001fcbacb,ma_choice_v3_real1,5a8599792a842c0001fcbacb,10,Amount of traffic,direction,2,2,-1,Very Little,A Lot,6564,,2022-01-27 18:45:07,4128
603fa7d057d382087d66d1c2,ma_choice_v3_real1,603fa7d057d382087d66d1c2,7,Size of yard,direction,2,2,-1,600 square feet,300 square feet,8834,,2022-01-27 18:45:13,4129
5a8599792a842c0001fcbacb,ma_choice_v3_real1,5a8599792a842c0001fcbacb,0,Closeness to parks,direction,2,2,-1,10 min away,30 min away,13033,,2022-01-27 18:45:20,4130
603fa7d057d382087d66d1c2,ma_choice_v3_real1,603fa7d057d382087d66d1c2,2,Closeness to public transportation,direction,2,2,-1,20 min away,30 min away,11724,,2022-01-27 18:45:25,4131
5a8599792a842c0001fcbacb,ma_choice_v3_real1,5a8599792a842c0001fcbacb,7,Size of yard,direction,2,2,-1,600 square feet,0 square feet,7622,,2022-01-27 18:45:28,4132
5a8599792a842c0001fcbacb,ma_choice_v3_real1,5a8599792a842c0001fcbacb,11,Size of home,direction,2,2,-1,1800 square feet,600 square feet,3559,,2022-01-27 18:45:31,4133
5a8599792a842c0001fcbacb,ma_choice_v3_real1,5a8599792a842c0001fcbacb,6,Year building was built,direction,2,2,-1,2020,1985,4709,,2022-01-27 18:45:36,4134
603fa7d057d382087d66d1c2,ma_choice_v3_real1,603fa7d057d382087d66d1c2,9,Quality of heat/AC system,direction,2,2,-1,Good,Bad,13749,,2022-01-27 18:45:39,4135
5a8599792a842c0001fcbacb,ma_choice_v3_real1,5a8599792a842c0001fcbacb,9,Quality of heat/AC system,direction,2,2,-1,Very Good,Very Bad,4012,,2022-01-27 18:45:40,4136
5a8599792a842c0001fcbacb,ma_choice_v3_real1,5a8599792a842c0001fcbacb,4,Reputation of closest school,direction,2,2,-1,Very Good,Very Bad,4191,,2022-01-27 18:45:44,4137
603fa7d057d382087d66d1c2,ma_choice_v3_real1,603fa7d057d382087d66d1c2,1,Closeness to cafes/restaurants,direction,2,2,-1,10 min away,30 min away,7202,,2022-01-27 18:45:46,4138
5a8599792a842c0001fcbacb,ma_choice_v3_real1,5a8599792a842c0001fcbacb,3,Noise pollution,direction,2,2,-1,Very Low,Very High,7648,,2022-01-27 18:45:52,4139
603fa7d057d382087d66d1c2,ma_choice_v3_real1,603fa7d057d382087d66d1c2,6,Year building was built,direction,2,2,-1,2020,1950,7568,,2022-01-27 18:45:53,4140
5a8599792a842c0001fcbacb,ma_choice_v3_real1,5a8599792a842c0001fcbacb,8,Washer/dryer in unit,direction,2,2,-1,Yes,No,7080,,2022-01-27 18:45:59,4141
5a8599792a842c0001fcbacb,ma_choice_v3_real1,5a8599792a842c0001fcbacb,1,Closeness to cafes/restaurants,direction,2,2,-1,20 min away,10 min away,6454,,2022-01-27 18:46:06,4142
5b5a822e1ad8270001c4f28d,ma_choice_v3_real1,5b5a822e1ad8270001c4f28d,10,Amount of traffic,direction,2,2,-1,A Little,A Lot,27020,,2022-01-27 18:46:20,4143
5b5a822e1ad8270001c4f28d,ma_choice_v3_real1,5b5a822e1ad8270001c4f28d,7,Size of yard,direction,2,2,-1,600 square feet,0 square feet,11325,,2022-01-27 18:46:31,4144
5b5a822e1ad8270001c4f28d,ma_choice_v3_real1,5b5a822e1ad8270001c4f28d,2,Closeness to public transportation,direction,2,2,-1,10 min away,30 min away,11928,,2022-01-27 18:46:43,4145
5b5a822e1ad8270001c4f28d,ma_choice_v3_real1,5b5a822e1ad8270001c4f28d,1,Closeness to cafes/restaurants,direction,2,2,-1,10 min away,30 min away,9709,,2022-01-27 18:46:53,4146
5b5a822e1ad8270001c4f28d,ma_choice_v3_real1,5b5a822e1ad8270001c4f28d,11,Size of home,direction,2,2,-1,1800 square feet,600 square feet,16236,,2022-01-27 18:47:09,4147
2D85BAD6,ma_choice_v3_real1,57b270d576b2ea0001c98812,0,Quality of heat/AC system,original,,1,1,,,3333,,2022-01-27 18:47:10,4148
603fa7d057d382087d66d1c2,ma_choice_v3_real1,603fa7d057d382087d66d1c2,0,Closeness to parks,direction,2,2,-1,10 min away,30 min away,78992,,2022-01-27 18:47:12,4149
603fa7d057d382087d66d1c2,ma_choice_v3_real1,603fa7d057d382087d66d1c2,5,Amount of natural light,direction,2,2,-1,A Lot,Very Little,4688,,2022-01-27 18:47:17,4150
5b5a822e1ad8270001c4f28d,ma_choice_v3_real1,5b5a822e1ad8270001c4f28d,9,Quality of heat/AC system,direction,2,2,-1,Very Good,Very Bad,9086,,2022-01-27 18:47:18,4151
603fa7d057d382087d66d1c2,ma_choice_v3_real1,603fa7d057d382087d66d1c2,3,Noise pollution,direction,2,2,-1,Moderate,Very High,9901,,2022-01-27 18:47:27,4152
5b5a822e1ad8270001c4f28d,ma_choice_v3_real1,5b5a822e1ad8270001c4f28d,6,Year building was built,direction,2,2,-1,1985,1950,10758,,2022-01-27 18:47:29,4153
603fa7d057d382087d66d1c2,ma_choice_v3_real1,603fa7d057d382087d66d1c2,10,Amount of traffic,direction,2,2,-1,A Moderate Amount,Very Little,6530,,2022-01-27 18:47:33,4154
5b5a822e1ad8270001c4f28d,ma_choice_v3_real1,5b5a822e1ad8270001c4f28d,0,Closeness to parks,direction,2,2,-1,10 min away,30 min away,7332,,2022-01-27 18:47:36,4155
61001214262ccac3ef6bb096,ma_choice_v3_real1,61001214262ccac3ef6bb096,1,Closeness to cafes/restaurants,original,2,2,0,,,4909,,2022-01-27 18:47:37,4156
603fa7d057d382087d66d1c2,ma_choice_v3_real1,603fa7d057d382087d66d1c2,4,Reputation of closest school,direction,2,2,-1,Very Good,Very Bad,5254,,2022-01-27 18:47:39,4157
61001214262ccac3ef6bb096,ma_choice_v3_real1,61001214262ccac3ef6bb096,11,Size of home,original,2,2,75,,,4702,,2022-01-27 18:47:41,4158
5b5a822e1ad8270001c4f28d,ma_choice_v3_real1,5b5a822e1ad8270001c4f28d,4,Reputation of closest school,direction,2,2,-1,Good,Bad,7265,,2022-01-27 18:47:43,4159
603fa7d057d382087d66d1c2,ma_choice_v3_real1,603fa7d057d382087d66d1c2,11,Size of home,direction,2,2,-1,1800 square feet,600 square feet,5893,,2022-01-27 18:47:45,4160
61001214262ccac3ef6bb096,ma_choice_v3_real1,61001214262ccac3ef6bb096,10,Amount of traffic,original,2,2,24,,,4415,,2022-01-27 18:47:46,4161
603fa7d057d382087d66d1c2,ma_choice_v3_real1,603fa7d057d382087d66d1c2,8,Washer/dryer in unit,direction,2,2,-1,Yes,No,3602,,2022-01-27 18:47:48,4162
2D85BAD6,ma_choice_v3_real1,57b270d576b2ea0001c98812,11,Size of home,followup,,1,50,,,5741,,2022-01-27 18:47:50,4163
61001214262ccac3ef6bb096,ma_choice_v3_real1,61001214262ccac3ef6bb096,0,Closeness to parks,original,2,2,0,,,5220,,2022-01-27 18:47:51,4164
5b5a822e1ad8270001c4f28d,ma_choice_v3_real1,5b5a822e1ad8270001c4f28d,8,Washer/dryer in unit,direction,2,2,-1,Yes,No,8835,,2022-01-27 18:47:52,4165
2D85BAD6,ma_choice_v3_real1,57b270d576b2ea0001c98812,10,Amount of traffic,followup,,1,26,,,3989,,2022-01-27 18:47:54,4166
61001214262ccac3ef6bb096,ma_choice_v3_real1,61001214262ccac3ef6bb096,6,Year building was built,original,2,2,79,,,4453,,2022-01-27 18:47:56,4167
2D85BAD6,ma_choice_v3_real1,57b270d576b2ea0001c98812,4,Reputation of closest school,followup,,1,0,,,3229,,2022-01-27 18:47:57,4168
61001214262ccac3ef6bb096,ma_choice_v3_real1,61001214262ccac3ef6bb096,9,Quality of heat/AC system,original,2,2,85,,,4338,,2022-01-27 18:48:00,4169
2D85BAD6,ma_choice_v3_real1,57b270d576b2ea0001c98812,1,Closeness to cafes/restaurants,followup,,1,51,,,4101,,2022-01-27 18:48:01,4170
5b5a822e1ad8270001c4f28d,ma_choice_v3_real1,5b5a822e1ad8270001c4f28d,3,Noise pollution,direction,2,2,-1,Very Low,Very High,9939,,2022-01-27 18:48:02,4171
61001214262ccac3ef6bb096,ma_choice_v3_real1,61001214262ccac3ef6bb096,8,Washer/dryer in unit,original,2,2,73,,,4019,,2022-01-27 18:48:04,4172
61001214262ccac3ef6bb096,ma_choice_v3_real1,61001214262ccac3ef6bb096,2,Closeness to public transportation,original,2,2,0,,,3120,,2022-01-27 18:48:07,4173
2D85BAD6,ma_choice_v3_real1,57b270d576b2ea0001c98812,8,Washer/dryer in unit,followup,,1,86,,,8093,,2022-01-27 18:48:09,4174
5b5a822e1ad8270001c4f28d,ma_choice_v3_real1,5b5a822e1ad8270001c4f28d,5,Amount of natural light,direction,2,2,-1,A Moderate Amount,Very Little,7866,,2022-01-27 18:48:10,4175
61001214262ccac3ef6bb096,ma_choice_v3_real1,61001214262ccac3ef6bb096,5,Amount of natural light,original,2,2,25,,,3187,,2022-01-27 18:48:10,4176
2D85BAD6,ma_choice_v3_real1,57b270d576b2ea0001c98812,0,Closeness to parks,followup,,1,25,,,2461,,2022-01-27 18:48:12,4177
61001214262ccac3ef6bb096,ma_choice_v3_real1,61001214262ccac3ef6bb096,3,Noise pollution,original,2,2,12,,,3417,,2022-01-27 18:48:14,4178
2D85BAD6,ma_choice_v3_real1,57b270d576b2ea0001c98812,7,Size of yard,followup,,1,25,,,2653,,2022-01-27 18:48:14,4179
61001214262ccac3ef6bb096,ma_choice_v3_real1,61001214262ccac3ef6bb096,4,Reputation of closest school,original,2,2,80,,,3947,,2022-01-27 18:48:18,4180
2D85BAD6,ma_choice_v3_real1,57b270d576b2ea0001c98812,6,Year building was built,followup,,1,12,,,3103,,2022-01-27 18:48:18,4181
61001214262ccac3ef6bb096,ma_choice_v3_real1,61001214262ccac3ef6bb096,7,Size of yard,original,2,2,26,,,2830,,2022-01-27 18:48:20,4182
2D85BAD6,ma_choice_v3_real1,57b270d576b2ea0001c98812,5,Amount of natural light,followup,,1,37,,,3569,,2022-01-27 18:48:21,4183
2D85BAD6,ma_choice_v3_real1,57b270d576b2ea0001c98812,3,Noise pollution,followup,,1,12,,,1797,,2022-01-27 18:48:23,4184
2D85BAD6,ma_choice_v3_real1,57b270d576b2ea0001c98812,9,Quality of heat/AC system,followup,,1,100,,,2702,,2022-01-27 18:48:26,4185
2D85BAD6,ma_choice_v3_real1,57b270d576b2ea0001c98812,2,Closeness to public transportation,followup,,1,49,,,4349,,2022-01-27 18:48:30,4186
61001214262ccac3ef6bb096,ma_choice_v3_real1,61001214262ccac3ef6bb096,2,Closeness to public transportation,followup,2,2,,,,,,2022-01-27 18:48:32,4187
61001214262ccac3ef6bb096,ma_choice_v3_real1,61001214262ccac3ef6bb096,7,Size of yard,followup,2,2,,,,,,2022-01-27 18:48:32,4188
61001214262ccac3ef6bb096,ma_choice_v3_real1,61001214262ccac3ef6bb096,5,Amount of natural light,followup,2,2,,,,,,2022-01-27 18:48:32,4189
61001214262ccac3ef6bb096,ma_choice_v3_real1,61001214262ccac3ef6bb096,9,Quality of heat/AC system,followup,2,2,,,,,,2022-01-27 18:48:32,4190
61001214262ccac3ef6bb096,ma_choice_v3_real1,61001214262ccac3ef6bb096,0,Closeness to parks,followup,2,2,,,,,,2022-01-27 18:48:32,4191
61001214262ccac3ef6bb096,ma_choice_v3_real1,61001214262ccac3ef6bb096,4,Reputation of closest school,followup,2,2,,,,,,2022-01-27 18:48:32,4192
61001214262ccac3ef6bb096,ma_choice_v3_real1,61001214262ccac3ef6bb096,11,Size of home,followup,2,2,,,,,,2022-01-27 18:48:32,4193
61001214262ccac3ef6bb096,ma_choice_v3_real1,61001214262ccac3ef6bb096,8,Washer/dryer in unit,followup,2,2,,,,,,2022-01-27 18:48:32,4194
61001214262ccac3ef6bb096,ma_choice_v3_real1,61001214262ccac3ef6bb096,1,Closeness to cafes/restaurants,followup,2,2,,,,,,2022-01-27 18:48:32,4195
61001214262ccac3ef6bb096,ma_choice_v3_real1,61001214262ccac3ef6bb096,6,Year building was built,followup,2,2,,,,,,2022-01-27 18:48:32,4196
61001214262ccac3ef6bb096,ma_choice_v3_real1,61001214262ccac3ef6bb096,10,Amount of traffic,followup,2,2,,,,,,2022-01-27 18:48:32,4197
61001214262ccac3ef6bb096,ma_choice_v3_real1,61001214262ccac3ef6bb096,3,Noise pollution,followup,2,2,,,,,,2022-01-27 18:48:32,4198
5edae6ec1a69d47606c15969,ma_choice_v3_real1,5edae6ec1a69d47606c15969,7,Size of yard,original,2,2,19,,,4598,,2022-01-27 18:48:34,4199
5edae6ec1a69d47606c15969,ma_choice_v3_real1,5edae6ec1a69d47606c15969,0,Closeness to parks,original,2,2,6,,,2907,,2022-01-27 18:48:37,4200
5edae6ec1a69d47606c15969,ma_choice_v3_real1,5edae6ec1a69d47606c15969,11,Size of home,original,2,2,38,,,3740,,2022-01-27 18:48:40,4201
5edae6ec1a69d47606c15969,ma_choice_v3_real1,5edae6ec1a69d47606c15969,9,Quality of heat/AC system,original,2,2,54,,,2788,,2022-01-27 18:48:43,4202
5edae6ec1a69d47606c15969,ma_choice_v3_real1,5edae6ec1a69d47606c15969,2,Closeness to public transportation,original,2,2,25,,,2404,,2022-01-27 18:48:46,4203
5edae6ec1a69d47606c15969,ma_choice_v3_real1,5edae6ec1a69d47606c15969,10,Amount of traffic,original,2,2,76,,,4269,,2022-01-27 18:48:50,4204
5edae6ec1a69d47606c15969,ma_choice_v3_real1,5edae6ec1a69d47606c15969,3,Noise pollution,original,2,2,73,,,2627,,2022-01-27 18:48:52,4205
60febf58549ef9280776efec,ma_choice_v3_real1,60febf58549ef9280776efec,5,Amount of natural light,original,2,2,37,,,5270,,2022-01-27 18:48:54,4206
5edae6ec1a69d47606c15969,ma_choice_v3_real1,5edae6ec1a69d47606c15969,8,Washer/dryer in unit,original,2,2,8,,,2100,,2022-01-27 18:48:55,4207
5edae6ec1a69d47606c15969,ma_choice_v3_real1,5edae6ec1a69d47606c15969,6,Year building was built,original,2,2,11,,,2172,,2022-01-27 18:48:57,4208
60febf58549ef9280776efec,ma_choice_v3_real1,60febf58549ef9280776efec,10,Amount of traffic,original,2,2,62,,,5351,,2022-01-27 18:49:00,4209
5edae6ec1a69d47606c15969,ma_choice_v3_real1,5edae6ec1a69d47606c15969,1,Closeness to cafes/restaurants,original,2,2,100,,,4028,,2022-01-27 18:49:01,4210
5edae6ec1a69d47606c15969,ma_choice_v3_real1,5edae6ec1a69d47606c15969,5,Amount of natural light,original,2,2,8,,,2301,,2022-01-27 18:49:03,4211
60febf58549ef9280776efec,ma_choice_v3_real1,60febf58549ef9280776efec,0,Closeness to parks,original,2,2,24,,,3771,,2022-01-27 18:49:03,4212
5edae6ec1a69d47606c15969,ma_choice_v3_real1,5edae6ec1a69d47606c15969,4,Reputation of closest school,original,2,2,6,,,2813,,2022-01-27 18:49:06,4213
60febf58549ef9280776efec,ma_choice_v3_real1,60febf58549ef9280776efec,8,Washer/dryer in unit,original,2,2,0,,,3195,,2022-01-27 18:49:07,4214
60febf58549ef9280776efec,ma_choice_v3_real1,60febf58549ef9280776efec,2,Closeness to public transportation,original,2,2,0,,,3566,,2022-01-27 18:49:10,4215
2D85BAD6,ma_choice_v3_real1,57b270d576b2ea0001c98812,9,Quality of heat/AC system,direction,,1,-1,Very Good,Very Bad,10398,,2022-01-27 18:49:10,4216
60febf58549ef9280776efec,ma_choice_v3_real1,60febf58549ef9280776efec,7,Size of yard,original,2,2,95,,,5758,,2022-01-27 18:49:16,4217
61001214262ccac3ef6bb096,ma_choice_v3_real1,61001214262ccac3ef6bb096,11,Size of home,direction,2,2,-1,1800 square feet,600 square feet,9045,,2022-01-27 18:49:17,4218
60febf58549ef9280776efec,ma_choice_v3_real1,60febf58549ef9280776efec,11,Size of home,original,2,2,60,,,3772,,2022-01-27 18:49:20,4219
60febf58549ef9280776efec,ma_choice_v3_real1,60febf58549ef9280776efec,6,Year building was built,original,2,2,10,,,3510,,2022-01-27 18:49:23,4220
61001214262ccac3ef6bb096,ma_choice_v3_real1,61001214262ccac3ef6bb096,3,Noise pollution,direction,2,2,-1,Very Low,Very High,7804,,2022-01-27 18:49:25,4221
60febf58549ef9280776efec,ma_choice_v3_real1,60febf58549ef9280776efec,3,Noise pollution,original,2,2,53,,,3998,,2022-01-27 18:49:27,4222
2D85BAD6,ma_choice_v3_real1,57b270d576b2ea0001c98812,8,Washer/dryer in unit,direction,,1,-1,Yes,No,17860,,2022-01-27 18:49:28,4223
61001214262ccac3ef6bb096,ma_choice_v3_real1,61001214262ccac3ef6bb096,8,Washer/dryer in unit,direction,2,2,-1,Yes,No,4408,,2022-01-27 18:49:30,4224
60febf58549ef9280776efec,ma_choice_v3_real1,60febf58549ef9280776efec,9,Quality of heat/AC system,original,2,2,0,,,2900,,2022-01-27 18:49:30,4225
2D85BAD6,ma_choice_v3_real1,57b270d576b2ea0001c98812,7,Size of yard,direction,,1,-1,600 square feet,0 square feet,4060,,2022-01-27 18:49:32,4226
60febf58549ef9280776efec,ma_choice_v3_real1,60febf58549ef9280776efec,4,Reputation of closest school,original,2,2,0,,,2508,,2022-01-27 18:49:33,4227
61001214262ccac3ef6bb096,ma_choice_v3_real1,61001214262ccac3ef6bb096,6,Year building was built,direction,2,2,-1,2020,1950,4766,,2022-01-27 18:49:34,4228
60febf58549ef9280776efec,ma_choice_v3_real1,60febf58549ef9280776efec,1,Closeness to cafes/restaurants,original,2,2,0,,,2634,,2022-01-27 18:49:35,4229
2D85BAD6,ma_choice_v3_real1,57b270d576b2ea0001c98812,11,Size of home,direction,,1,-1,1800 square feet,600 square feet,3281,,2022-01-27 18:49:36,4230
61001214262ccac3ef6bb096,ma_choice_v3_real1,61001214262ccac3ef6bb096,4,Reputation of closest school,direction,2,2,-1,Very Good,Very Bad,7149,,2022-01-27 18:49:41,4231
2D85BAD6,ma_choice_v3_real1,57b270d576b2ea0001c98812,2,Closeness to public transportation,direction,,1,-1,10 min away,30 min away,7517,,2022-01-27 18:49:43,4232
2D85BAD6,ma_choice_v3_real1,57b270d576b2ea0001c98812,6,Year building was built,direction,,1,-1,2020,1950,4013,,2022-01-27 18:49:47,4233
61001214262ccac3ef6bb096,ma_choice_v3_real1,61001214262ccac3ef6bb096,1,Closeness to cafes/restaurants,direction,2,2,-1,10 min away,30 min away,7167,,2022-01-27 18:49:49,4234
61214437be6b886302dc6198,ma_choice_v3_real1,61214437be6b886302dc6198,10,Amount of traffic,original,2,2,34,,,11951,,2022-01-27 18:49:53,4235
2D85BAD6,ma_choice_v3_real1,57b270d576b2ea0001c98812,0,Closeness to parks,direction,,1,-1,10 min away,30 min away,6197,,2022-01-27 18:49:53,4236
61001214262ccac3ef6bb096,ma_choice_v3_real1,61001214262ccac3ef6bb096,5,Amount of natural light,direction,2,2,-1,A Lot,Very Little,5088,,2022-01-27 18:49:54,4237
60febf58549ef9280776efec,ma_choice_v3_real1,60febf58549ef9280776efec,1,Closeness to cafes/restaurants,followup,2,2,,,,,,2022-01-27 18:49:56,4238
60febf58549ef9280776efec,ma_choice_v3_real1,60febf58549ef9280776efec,9,Quality of heat/AC system,followup,2,2,,,,,,2022-01-27 18:49:56,4239
60febf58549ef9280776efec,ma_choice_v3_real1,60febf58549ef9280776efec,3,Noise pollution,followup,2,2,,,,,,2022-01-27 18:49:56,4240
60febf58549ef9280776efec,ma_choice_v3_real1,60febf58549ef9280776efec,0,Closeness to parks,followup,2,2,,,,,,2022-01-27 18:49:56,4241
60febf58549ef9280776efec,ma_choice_v3_real1,60febf58549ef9280776efec,10,Amount of traffic,followup,2,2,,,,,,2022-01-27 18:49:56,4242
60febf58549ef9280776efec,ma_choice_v3_real1,60febf58549ef9280776efec,2,Closeness to public transportation,followup,2,2,,,,,,2022-01-27 18:49:56,4243
60febf58549ef9280776efec,ma_choice_v3_real1,60febf58549ef9280776efec,5,Amount of natural light,followup,2,2,,,,,,2022-01-27 18:49:56,4244
60febf58549ef9280776efec,ma_choice_v3_real1,60febf58549ef9280776efec,7,Size of yard,followup,2,2,,,,,,2022-01-27 18:49:56,4245
60febf58549ef9280776efec,ma_choice_v3_real1,60febf58549ef9280776efec,4,Reputation of closest school,followup,2,2,,,,,,2022-01-27 18:49:56,4246
60febf58549ef9280776efec,ma_choice_v3_real1,60febf58549ef9280776efec,11,Size of home,followup,2,2,,,,,,2022-01-27 18:49:56,4247
60febf58549ef9280776efec,ma_choice_v3_real1,60febf58549ef9280776efec,6,Year building was built,followup,2,2,,,,,,2022-01-27 18:49:56,4248
60febf58549ef9280776efec,ma_choice_v3_real1,60febf58549ef9280776efec,8,Washer/dryer in unit,followup,2,2,,,,,,2022-01-27 18:49:56,4249
5edae6ec1a69d47606c15969,ma_choice_v3_real1,5edae6ec1a69d47606c15969,7,Size of yard,followup,2,2,,,,,,2022-01-27 18:49:58,4250
5edae6ec1a69d47606c15969,ma_choice_v3_real1,5edae6ec1a69d47606c15969,6,Year building was built,followup,2,2,,,,,,2022-01-27 18:49:58,4251
5edae6ec1a69d47606c15969,ma_choice_v3_real1,5edae6ec1a69d47606c15969,1,Closeness to cafes/restaurants,followup,2,2,,,,,,2022-01-27 18:49:58,4252
5edae6ec1a69d47606c15969,ma_choice_v3_real1,5edae6ec1a69d47606c15969,11,Size of home,followup,2,2,,,,,,2022-01-27 18:49:58,4253
5edae6ec1a69d47606c15969,ma_choice_v3_real1,5edae6ec1a69d47606c15969,3,Noise pollution,followup,2,2,,,,,,2022-01-27 18:49:58,4254
5edae6ec1a69d47606c15969,ma_choice_v3_real1,5edae6ec1a69d47606c15969,10,Amount of traffic,followup,2,2,,,,,,2022-01-27 18:49:58,4255
5edae6ec1a69d47606c15969,ma_choice_v3_real1,5edae6ec1a69d47606c15969,4,Reputation of closest school,followup,2,2,,,,,,2022-01-27 18:49:58,4256
5edae6ec1a69d47606c15969,ma_choice_v3_real1,5edae6ec1a69d47606c15969,5,Amount of natural light,followup,2,2,,,,,,2022-01-27 18:49:58,4257
5edae6ec1a69d47606c15969,ma_choice_v3_real1,5edae6ec1a69d47606c15969,0,Closeness to parks,followup,2,2,,,,,,2022-01-27 18:49:58,4258
5edae6ec1a69d47606c15969,ma_choice_v3_real1,5edae6ec1a69d47606c15969,9,Quality of heat/AC system,followup,2,2,,,,,,2022-01-27 18:49:58,4259
5edae6ec1a69d47606c15969,ma_choice_v3_real1,5edae6ec1a69d47606c15969,8,Washer/dryer in unit,followup,2,2,,,,,,2022-01-27 18:49:58,4260
5edae6ec1a69d47606c15969,ma_choice_v3_real1,5edae6ec1a69d47606c15969,2,Closeness to public transportation,followup,2,2,,,,,,2022-01-27 18:49:58,4261
61001214262ccac3ef6bb096,ma_choice_v3_real1,61001214262ccac3ef6bb096,2,Closeness to public transportation,direction,2,2,-1,10 min away,30 min away,5704,,2022-01-27 18:49:59,4262
2D85BAD6,ma_choice_v3_real1,57b270d576b2ea0001c98812,3,Noise pollution,direction,,1,-1,Very Low,Very High,6757,,2022-01-27 18:50:00,4263
61001214262ccac3ef6bb096,ma_choice_v3_real1,61001214262ccac3ef6bb096,0,Closeness to parks,direction,2,2,-1,10 min away,30 min away,4593,,2022-01-27 18:50:04,4264
2D85BAD6,ma_choice_v3_real1,57b270d576b2ea0001c98812,4,Reputation of closest school,direction,,1,-1,Very Good,Very Bad,3989,,2022-01-27 18:50:04,4265
2D85BAD6,ma_choice_v3_real1,57b270d576b2ea0001c98812,5,Amount of natural light,direction,,1,-1,A Lot,Very Little,3692,,2022-01-27 18:50:08,4266
61001214262ccac3ef6bb096,ma_choice_v3_real1,61001214262ccac3ef6bb096,9,Quality of heat/AC system,direction,2,2,-1,Very Good,Very Bad,4526,,2022-01-27 18:50:09,4267
61001214262ccac3ef6bb096,ma_choice_v3_real1,61001214262ccac3ef6bb096,7,Size of yard,direction,2,2,-1,600 square feet,0 square feet,4470,,2022-01-27 18:50:13,4268
2D85BAD6,ma_choice_v3_real1,57b270d576b2ea0001c98812,10,Amount of traffic,direction,,1,-1,Very Little,A Lot,6405,,2022-01-27 18:50:14,4269
61214437be6b886302dc6198,ma_choice_v3_real1,61214437be6b886302dc6198,9,Quality of heat/AC system,original,2,2,69,,,21718,,2022-01-27 18:50:15,4270
61001214262ccac3ef6bb096,ma_choice_v3_real1,61001214262ccac3ef6bb096,10,Amount of traffic,direction,2,2,-1,Very Little,A Lot,4346,,2022-01-27 18:50:17,4271
2D85BAD6,ma_choice_v3_real1,57b270d576b2ea0001c98812,1,Closeness to cafes/restaurants,direction,,1,-1,10 min away,30 min away,3773,,2022-01-27 18:50:18,4272
61214437be6b886302dc6198,ma_choice_v3_real1,61214437be6b886302dc6198,2,Closeness to public transportation,original,2,2,0,,,4022,,2022-01-27 18:50:19,4273
61214437be6b886302dc6198,ma_choice_v3_real1,61214437be6b886302dc6198,8,Washer/dryer in unit,original,2,2,73,,,2334,,2022-01-27 18:50:21,4274
61214437be6b886302dc6198,ma_choice_v3_real1,61214437be6b886302dc6198,3,Noise pollution,original,2,2,52,,,2702,,2022-01-27 18:50:24,4275
61214437be6b886302dc6198,ma_choice_v3_real1,61214437be6b886302dc6198,0,Closeness to parks,original,2,2,23,,,2167,,2022-01-27 18:50:26,4276
61214437be6b886302dc6198,ma_choice_v3_real1,61214437be6b886302dc6198,7,Size of yard,original,2,2,38,,,2271,,2022-01-27 18:50:28,4277
61214437be6b886302dc6198,ma_choice_v3_real1,61214437be6b886302dc6198,11,Size of home,original,2,2,3,,,1983,,2022-01-27 18:50:30,4278
61214437be6b886302dc6198,ma_choice_v3_real1,61214437be6b886302dc6198,5,Amount of natural light,original,2,2,20,,,2046,,2022-01-27 18:50:32,4279
61214437be6b886302dc6198,ma_choice_v3_real1,61214437be6b886302dc6198,1,Closeness to cafes/restaurants,original,2,2,18,,,2206,,2022-01-27 18:50:34,4280
61214437be6b886302dc6198,ma_choice_v3_real1,61214437be6b886302dc6198,4,Reputation of closest school,original,2,2,80,,,2174,,2022-01-27 18:50:36,4281
61214437be6b886302dc6198,ma_choice_v3_real1,61214437be6b886302dc6198,6,Year building was built,original,2,2,55,,,2519,,2022-01-27 18:50:39,4282
60febf58549ef9280776efec,ma_choice_v3_real1,60febf58549ef9280776efec,7,Size of yard,direction,2,2,-1,600 square feet,0 square feet,11531,,2022-01-27 18:50:40,4283
61214437be6b886302dc6198,ma_choice_v3_real1,61214437be6b886302dc6198,1,Closeness to cafes/restaurants,followup,2,2,,,,,,2022-01-27 18:50:48,4284
61214437be6b886302dc6198,ma_choice_v3_real1,61214437be6b886302dc6198,2,Closeness to public transportation,followup,2,2,,,,,,2022-01-27 18:50:48,4285
61214437be6b886302dc6198,ma_choice_v3_real1,61214437be6b886302dc6198,9,Quality of heat/AC system,followup,2,2,,,,,,2022-01-27 18:50:48,4286
61214437be6b886302dc6198,ma_choice_v3_real1,61214437be6b886302dc6198,10,Amount of traffic,followup,2,2,,,,,,2022-01-27 18:50:48,4287
61214437be6b886302dc6198,ma_choice_v3_real1,61214437be6b886302dc6198,4,Reputation of closest school,followup,2,2,,,,,,2022-01-27 18:50:48,4288
61214437be6b886302dc6198,ma_choice_v3_real1,61214437be6b886302dc6198,7,Size of yard,followup,2,2,,,,,,2022-01-27 18:50:48,4289
61214437be6b886302dc6198,ma_choice_v3_real1,61214437be6b886302dc6198,0,Closeness to parks,followup,2,2,,,,,,2022-01-27 18:50:48,4290
61214437be6b886302dc6198,ma_choice_v3_real1,61214437be6b886302dc6198,3,Noise pollution,followup,2,2,,,,,,2022-01-27 18:50:48,4291
61214437be6b886302dc6198,ma_choice_v3_real1,61214437be6b886302dc6198,11,Size of home,followup,2,2,,,,,,2022-01-27 18:50:48,4292
61214437be6b886302dc6198,ma_choice_v3_real1,61214437be6b886302dc6198,8,Washer/dryer in unit,followup,2,2,,,,,,2022-01-27 18:50:48,4293
61214437be6b886302dc6198,ma_choice_v3_real1,61214437be6b886302dc6198,5,Amount of natural light,followup,2,2,,,,,,2022-01-27 18:50:48,4294
61214437be6b886302dc6198,ma_choice_v3_real1,61214437be6b886302dc6198,6,Year building was built,followup,2,2,,,,,,2022-01-27 18:50:48,4295
60febf58549ef9280776efec,ma_choice_v3_real1,60febf58549ef9280776efec,10,Amount of traffic,direction,2,2,-1,Very Little,A Lot,16679,,2022-01-27 18:50:57,4296
5edae6ec1a69d47606c15969,ma_choice_v3_real1,5edae6ec1a69d47606c15969,2,Closeness to public transportation,direction,2,2,-1,10 min away,30 min away,10206,,2022-01-27 18:50:58,4297
60febf58549ef9280776efec,ma_choice_v3_real1,60febf58549ef9280776efec,4,Reputation of closest school,direction,2,2,-1,Good,Very Bad,10031,,2022-01-27 18:51:07,4298
5edae6ec1a69d47606c15969,ma_choice_v3_real1,5edae6ec1a69d47606c15969,4,Reputation of closest school,direction,2,2,-1,Moderate,Very Bad,9828,,2022-01-27 18:51:08,4299
5edae6ec1a69d47606c15969,ma_choice_v3_real1,5edae6ec1a69d47606c15969,11,Size of home,direction,2,2,-1,1200 square feet,600 square feet,4380,,2022-01-27 18:51:13,4300
60febf58549ef9280776efec,ma_choice_v3_real1,60febf58549ef9280776efec,11,Size of home,direction,2,2,-1,1800 square feet,600 square feet,8983,,2022-01-27 18:51:16,4301
5edae6ec1a69d47606c15969,ma_choice_v3_real1,5edae6ec1a69d47606c15969,9,Quality of heat/AC system,direction,2,2,-1,Good,Very Bad,6965,,2022-01-27 18:51:20,4302
5edae6ec1a69d47606c15969,ma_choice_v3_real1,5edae6ec1a69d47606c15969,1,Closeness to cafes/restaurants,direction,2,2,-1,10 min away,30 min away,5364,,2022-01-27 18:51:25,4303
60febf58549ef9280776efec,ma_choice_v3_real1,60febf58549ef9280776efec,5,Amount of natural light,direction,2,2,-1,A Moderate Amount,Very Little,13502,,2022-01-27 18:51:29,4304
5edae6ec1a69d47606c15969,ma_choice_v3_real1,5edae6ec1a69d47606c15969,7,Size of yard,direction,2,2,-1,600 square feet,0 square feet,4996,,2022-01-27 18:51:30,4305
5edae6ec1a69d47606c15969,ma_choice_v3_real1,5edae6ec1a69d47606c15969,10,Amount of traffic,direction,2,2,-1,Very Little,A Lot,5581,,2022-01-27 18:51:35,4306
5edae6ec1a69d47606c15969,ma_choice_v3_real1,5edae6ec1a69d47606c15969,8,Washer/dryer in unit,direction,2,2,-1,Yes,No,7460,,2022-01-27 18:51:43,4307
60febf58549ef9280776efec,ma_choice_v3_real1,60febf58549ef9280776efec,1,Closeness to cafes/restaurants,direction,2,2,-1,20 min away,30 min away,13773,,2022-01-27 18:51:43,4308
5edae6ec1a69d47606c15969,ma_choice_v3_real1,5edae6ec1a69d47606c15969,6,Year building was built,direction,2,2,-1,2020,1950,4180,,2022-01-27 18:51:47,4309
5c8ec999bb6a3c00014acf5f,ma_choice_v3_real1,5c8ec999bb6a3c00014acf5f,0,Washer/dryer in unit,original,,1,1,,,6152,,2022-01-27 18:51:48,4310
5edae6ec1a69d47606c15969,ma_choice_v3_real1,5edae6ec1a69d47606c15969,0,Closeness to parks,direction,2,2,-1,10 min away,30 min away,5556,,2022-01-27 18:51:53,4311
5edae6ec1a69d47606c15969,ma_choice_v3_real1,5edae6ec1a69d47606c15969,3,Noise pollution,direction,2,2,-1,Very Low,Very High,3749,,2022-01-27 18:51:57,4312
60febf58549ef9280776efec,ma_choice_v3_real1,60febf58549ef9280776efec,2,Closeness to public transportation,direction,2,2,-1,30 min away,30 min away,17289,,2022-01-27 18:52:01,4313
5edae6ec1a69d47606c15969,ma_choice_v3_real1,5edae6ec1a69d47606c15969,5,Amount of natural light,direction,2,2,-1,A Little,A Lot,11005,,2022-01-27 18:52:07,4314
60febf58549ef9280776efec,ma_choice_v3_real1,60febf58549ef9280776efec,3,Noise pollution,direction,2,2,-1,Very Low,Very High,8733,,2022-01-27 18:52:09,4315
60febf58549ef9280776efec,ma_choice_v3_real1,60febf58549ef9280776efec,0,Closeness to parks,direction,2,2,-1,10 min away,25 min away,10181,,2022-01-27 18:52:19,4316
60febf58549ef9280776efec,ma_choice_v3_real1,60febf58549ef9280776efec,8,Washer/dryer in unit,direction,2,2,-1,Yes,No,8460,,2022-01-27 18:52:28,4317
60febf58549ef9280776efec,ma_choice_v3_real1,60febf58549ef9280776efec,9,Quality of heat/AC system,direction,2,2,-1,Very Good,Bad,7910,,2022-01-27 18:52:36,4318
60febf58549ef9280776efec,ma_choice_v3_real1,60febf58549ef9280776efec,6,Year building was built,direction,2,2,-1,2020,1950,7362,,2022-01-27 18:52:43,4319
5c8ec999bb6a3c00014acf5f,ma_choice_v3_real1,5c8ec999bb6a3c00014acf5f,6,Year building was built,followup,,1,0,,,5025,,2022-01-27 18:52:46,4320
5c8ec999bb6a3c00014acf5f,ma_choice_v3_real1,5c8ec999bb6a3c00014acf5f,1,Closeness to cafes/restaurants,followup,,1,0,,,4954,,2022-01-27 18:52:51,4321
5f0e52aa66ece519e2831c7c,ma_choice_v3_real1,5f0e52aa66ece519e2831c7c,10,Amount of traffic,original,2,2,38,,,6721,,2022-01-27 18:52:51,4322
61214437be6b886302dc6198,ma_choice_v3_real1,61214437be6b886302dc6198,11,Size of home,direction,2,2,-1,1200 square feet,1800 square feet,5647,,2022-01-27 18:52:52,4323
5f0e52aa66ece519e2831c7c,ma_choice_v3_real1,5f0e52aa66ece519e2831c7c,2,Closeness to public transportation,original,2,2,6,,,3872,,2022-01-27 18:52:55,4324
60641f06b9c8e77f4605064a,ma_choice_v3_real1,60641f06b9c8e77f4605064a,6,Year building was built,original,2,2,25,,,9236,,2022-01-27 18:52:55,4325
61214437be6b886302dc6198,ma_choice_v3_real1,61214437be6b886302dc6198,1,Closeness to cafes/restaurants,direction,2,2,-1,15 min away,30 min away,7021,,2022-01-27 18:52:59,4326
5f0e52aa66ece519e2831c7c,ma_choice_v3_real1,5f0e52aa66ece519e2831c7c,5,Amount of natural light,original,2,2,50,,,4483,,2022-01-27 18:52:59,4327
5f0e52aa66ece519e2831c7c,ma_choice_v3_real1,5f0e52aa66ece519e2831c7c,11,Size of home,original,2,2,70,,,2949,,2022-01-27 18:53:02,4328
5c8ec999bb6a3c00014acf5f,ma_choice_v3_real1,5c8ec999bb6a3c00014acf5f,7,Size of yard,followup,,1,50,,,12339,,2022-01-27 18:53:03,4329
60641f06b9c8e77f4605064a,ma_choice_v3_real1,60641f06b9c8e77f4605064a,9,Quality of heat/AC system,original,2,2,73,,,9231,,2022-01-27 18:53:04,4330
61214437be6b886302dc6198,ma_choice_v3_real1,61214437be6b886302dc6198,6,Year building was built,direction,2,2,-1,2020,1985,6854,,2022-01-27 18:53:05,4331
5f0e52aa66ece519e2831c7c,ma_choice_v3_real1,5f0e52aa66ece519e2831c7c,4,Reputation of closest school,original,2,2,85,,,4737,,2022-01-27 18:53:07,4332
5c8ec999bb6a3c00014acf5f,ma_choice_v3_real1,5c8ec999bb6a3c00014acf5f,2,Closeness to public transportation,followup,,1,0,,,6670,,2022-01-27 18:53:10,4333
61214437be6b886302dc6198,ma_choice_v3_real1,61214437be6b886302dc6198,3,Noise pollution,direction,2,2,-1,Very Low,Very High,5319,,2022-01-27 18:53:11,4334
5f0e52aa66ece519e2831c7c,ma_choice_v3_real1,5f0e52aa66ece519e2831c7c,9,Quality of heat/AC system,original,2,2,47,,,4024,,2022-01-27 18:53:11,4335
60641f06b9c8e77f4605064a,ma_choice_v3_real1,60641f06b9c8e77f4605064a,0,Closeness to parks,original,2,2,32,,,8242,,2022-01-27 18:53:12,4336
5f0e52aa66ece519e2831c7c,ma_choice_v3_real1,5f0e52aa66ece519e2831c7c,7,Size of yard,original,2,2,63,,,2879,,2022-01-27 18:53:14,4337
61214437be6b886302dc6198,ma_choice_v3_real1,61214437be6b886302dc6198,5,Amount of natural light,direction,2,2,-1,A Lot,Very Little,3815,,2022-01-27 18:53:15,4338
5f0e52aa66ece519e2831c7c,ma_choice_v3_real1,5f0e52aa66ece519e2831c7c,8,Washer/dryer in unit,original,2,2,35,,,3832,,2022-01-27 18:53:18,4339
61214437be6b886302dc6198,ma_choice_v3_real1,61214437be6b886302dc6198,8,Washer/dryer in unit,direction,2,2,-1,Yes,No,3174,,2022-01-27 18:53:18,4340
5c8ec999bb6a3c00014acf5f,ma_choice_v3_real1,5c8ec999bb6a3c00014acf5f,10,Amount of traffic,followup,,1,50,,,8399,,2022-01-27 18:53:18,4341
60641f06b9c8e77f4605064a,ma_choice_v3_real1,60641f06b9c8e77f4605064a,8,Washer/dryer in unit,original,2,2,72,,,6326,,2022-01-27 18:53:19,4342
5f0e52aa66ece519e2831c7c,ma_choice_v3_real1,5f0e52aa66ece519e2831c7c,1,Closeness to cafes/restaurants,original,2,2,20,,,4294,,2022-01-27 18:53:22,4343
5c8ec999bb6a3c00014acf5f,ma_choice_v3_real1,5c8ec999bb6a3c00014acf5f,3,Noise pollution,followup,,1,0,,,5151,,2022-01-27 18:53:23,4344
60641f06b9c8e77f4605064a,ma_choice_v3_real1,60641f06b9c8e77f4605064a,3,Noise pollution,original,2,2,87,,,5582,,2022-01-27 18:53:24,4345
5f0e52aa66ece519e2831c7c,ma_choice_v3_real1,5f0e52aa66ece519e2831c7c,0,Closeness to parks,original,2,2,29,,,2648,,2022-01-27 18:53:25,4346
61214437be6b886302dc6198,ma_choice_v3_real1,61214437be6b886302dc6198,2,Closeness to public transportation,direction,2,2,-1,10 min away,30 min away,8102,,2022-01-27 18:53:26,4347
5c8ec999bb6a3c00014acf5f,ma_choice_v3_real1,5c8ec999bb6a3c00014acf5f,0,Closeness to parks,followup,,1,0,,,4994,,2022-01-27 18:53:28,4348
5f0e52aa66ece519e2831c7c,ma_choice_v3_real1,5f0e52aa66ece519e2831c7c,6,Year building was built,original,2,2,34,,,4251,,2022-01-27 18:53:29,4349
61214437be6b886302dc6198,ma_choice_v3_real1,61214437be6b886302dc6198,10,Amount of traffic,direction,2,2,-1,Very Little,A Lot,3078,,2022-01-27 18:53:29,4350
60641f06b9c8e77f4605064a,ma_choice_v3_real1,60641f06b9c8e77f4605064a,7,Size of yard,original,2,2,25,,,4868,,2022-01-27 18:53:29,4351
61214437be6b886302dc6198,ma_choice_v3_real1,61214437be6b886302dc6198,9,Quality of heat/AC system,direction,2,2,-1,Very Good,Very Bad,3329,,2022-01-27 18:53:32,4352
5c8ec999bb6a3c00014acf5f,ma_choice_v3_real1,5c8ec999bb6a3c00014acf5f,8,Washer/dryer in unit,followup,,1,100,,,4843,,2022-01-27 18:53:33,4353
5f0e52aa66ece519e2831c7c,ma_choice_v3_real1,5f0e52aa66ece519e2831c7c,3,Noise pollution,original,2,2,33,,,4783,,2022-01-27 18:53:34,4354
60641f06b9c8e77f4605064a,ma_choice_v3_real1,60641f06b9c8e77f4605064a,4,Reputation of closest school,original,2,2,5,,,5692,,2022-01-27 18:53:35,4355
61214437be6b886302dc6198,ma_choice_v3_real1,61214437be6b886302dc6198,7,Size of yard,direction,2,2,-1,300 square feet,0 square feet,4031,,2022-01-27 18:53:36,4356
60641f06b9c8e77f4605064a,ma_choice_v3_real1,60641f06b9c8e77f4605064a,1,Closeness to cafes/restaurants,original,2,2,31,,,5100,,2022-01-27 18:53:40,4357
61214437be6b886302dc6198,ma_choice_v3_real1,61214437be6b886302dc6198,0,Closeness to parks,direction,2,2,-1,10 min away,30 min away,3878,,2022-01-27 18:53:40,4358
5c8ec999bb6a3c00014acf5f,ma_choice_v3_real1,5c8ec999bb6a3c00014acf5f,11,Size of home,followup,,1,24,,,9117,,2022-01-27 18:53:42,4359
61214437be6b886302dc6198,ma_choice_v3_real1,61214437be6b886302dc6198,4,Reputation of closest school,direction,2,2,-1,Very Good,Very Bad,3392,,2022-01-27 18:53:44,4360
5de0b69ba91be311cb773b0b,ma_choice_v3_real1,5de0b69ba91be311cb773b0b,0,Closeness to parks,original,2,2,0,,,6799,,2022-01-27 18:53:45,4361
60641f06b9c8e77f4605064a,ma_choice_v3_real1,60641f06b9c8e77f4605064a,2,Closeness to public transportation,original,2,2,34,,,5772,,2022-01-27 18:53:46,4362
5c8ec999bb6a3c00014acf5f,ma_choice_v3_real1,5c8ec999bb6a3c00014acf5f,4,Reputation of closest school,followup,,1,0,,,4458,,2022-01-27 18:53:47,4363
5de0b69ba91be311cb773b0b,ma_choice_v3_real1,5de0b69ba91be311cb773b0b,7,Size of yard,original,2,2,0,,,3285,,2022-01-27 18:53:48,4364
610ec37ea0648de28b37fb83,ma_choice_v3_real1,610ec37ea0648de28b37fb83,0,Size of home,original,,1,1,,,6709,,2022-01-27 18:53:52,4365
5c8ec999bb6a3c00014acf5f,ma_choice_v3_real1,5c8ec999bb6a3c00014acf5f,5,Amount of natural light,followup,,1,0,,,5805,,2022-01-27 18:53:52,4366
60641f06b9c8e77f4605064a,ma_choice_v3_real1,60641f06b9c8e77f4605064a,5,Amount of natural light,original,2,2,63,,,6708,,2022-01-27 18:53:53,4367
5de0b69ba91be311cb773b0b,ma_choice_v3_real1,5de0b69ba91be311cb773b0b,1,Closeness to cafes/restaurants,original,2,2,50,,,5582,,2022-01-27 18:53:54,4368
5f0e52aa66ece519e2831c7c,ma_choice_v3_real1,5f0e52aa66ece519e2831c7c,10,Amount of traffic,followup,2,2,,,,,,2022-01-27 18:53:58,4369
5f0e52aa66ece519e2831c7c,ma_choice_v3_real1,5f0e52aa66ece519e2831c7c,5,Amount of natural light,followup,2,2,,,,,,2022-01-27 18:53:58,4370
5f0e52aa66ece519e2831c7c,ma_choice_v3_real1,5f0e52aa66ece519e2831c7c,2,Closeness to public transportation,followup,2,2,,,,,,2022-01-27 18:53:58,4371
5f0e52aa66ece519e2831c7c,ma_choice_v3_real1,5f0e52aa66ece519e2831c7c,1,Closeness to cafes/restaurants,followup,2,2,,,,,,2022-01-27 18:53:58,4372
5f0e52aa66ece519e2831c7c,ma_choice_v3_real1,5f0e52aa66ece519e2831c7c,9,Quality of heat/AC system,followup,2,2,,,,,,2022-01-27 18:53:58,4373
5f0e52aa66ece519e2831c7c,ma_choice_v3_real1,5f0e52aa66ece519e2831c7c,8,Washer/dryer in unit,followup,2,2,,,,,,2022-01-27 18:53:58,4374
5f0e52aa66ece519e2831c7c,ma_choice_v3_real1,5f0e52aa66ece519e2831c7c,4,Reputation of closest school,followup,2,2,,,,,,2022-01-27 18:53:58,4375
5f0e52aa66ece519e2831c7c,ma_choice_v3_real1,5f0e52aa66ece519e2831c7c,6,Year building was built,followup,2,2,,,,,,2022-01-27 18:53:58,4376
5f0e52aa66ece519e2831c7c,ma_choice_v3_real1,5f0e52aa66ece519e2831c7c,3,Noise pollution,followup,2,2,,,,,,2022-01-27 18:53:58,4377
5f0e52aa66ece519e2831c7c,ma_choice_v3_real1,5f0e52aa66ece519e2831c7c,7,Size of yard,followup,2,2,,,,,,2022-01-27 18:53:58,4378
5f0e52aa66ece519e2831c7c,ma_choice_v3_real1,5f0e52aa66ece519e2831c7c,11,Size of home,followup,2,2,,,,,,2022-01-27 18:53:58,4379
5f0e52aa66ece519e2831c7c,ma_choice_v3_real1,5f0e52aa66ece519e2831c7c,0,Closeness to parks,followup,2,2,,,,,,2022-01-27 18:53:58,4380
60641f06b9c8e77f4605064a,ma_choice_v3_real1,60641f06b9c8e77f4605064a,10,Amount of traffic,original,2,2,60,,,5794,,2022-01-27 18:53:58,4381
5de0b69ba91be311cb773b0b,ma_choice_v3_real1,5de0b69ba91be311cb773b0b,10,Amount of traffic,original,2,2,37,,,5926,,2022-01-27 18:54:00,4382
5c8ec999bb6a3c00014acf5f,ma_choice_v3_real1,5c8ec999bb6a3c00014acf5f,9,Quality of heat/AC system,followup,,1,75,,,8689,,2022-01-27 18:54:01,4383
60641f06b9c8e77f4605064a,ma_choice_v3_real1,60641f06b9c8e77f4605064a,11,Size of home,original,2,2,26,,,6219,,2022-01-27 18:54:05,4384
5de0b69ba91be311cb773b0b,ma_choice_v3_real1,5de0b69ba91be311cb773b0b,9,Quality of heat/AC system,original,2,2,62,,,7270,,2022-01-27 18:54:07,4385
5de0b69ba91be311cb773b0b,ma_choice_v3_real1,5de0b69ba91be311cb773b0b,4,Reputation of closest school,original,2,2,0,,,4894,,2022-01-27 18:54:12,4386
5de0b69ba91be311cb773b0b,ma_choice_v3_real1,5de0b69ba91be311cb773b0b,11,Size of home,original,2,2,50,,,3438,,2022-01-27 18:54:15,4387
5de0b69ba91be311cb773b0b,ma_choice_v3_real1,5de0b69ba91be311cb773b0b,3,Noise pollution,original,2,2,50,,,3902,,2022-01-27 18:54:19,4388
5de0b69ba91be311cb773b0b,ma_choice_v3_real1,5de0b69ba91be311cb773b0b,5,Amount of natural light,original,2,2,12,,,3510,,2022-01-27 18:54:23,4389
5de0b69ba91be311cb773b0b,ma_choice_v3_real1,5de0b69ba91be311cb773b0b,8,Washer/dryer in unit,original,2,2,50,,,3390,,2022-01-27 18:54:26,4390
60641f06b9c8e77f4605064a,ma_choice_v3_real1,60641f06b9c8e77f4605064a,10,Amount of traffic,followup,2,2,,,,,,2022-01-27 18:54:27,4391
60641f06b9c8e77f4605064a,ma_choice_v3_real1,60641f06b9c8e77f4605064a,11,Size of home,followup,2,2,,,,,,2022-01-27 18:54:27,4392
60641f06b9c8e77f4605064a,ma_choice_v3_real1,60641f06b9c8e77f4605064a,5,Amount of natural light,followup,2,2,,,,,,2022-01-27 18:54:27,4393
60641f06b9c8e77f4605064a,ma_choice_v3_real1,60641f06b9c8e77f4605064a,4,Reputation of closest school,followup,2,2,,,,,,2022-01-27 18:54:27,4394
60641f06b9c8e77f4605064a,ma_choice_v3_real1,60641f06b9c8e77f4605064a,6,Year building was built,followup,2,2,,,,,,2022-01-27 18:54:27,4395
60641f06b9c8e77f4605064a,ma_choice_v3_real1,60641f06b9c8e77f4605064a,3,Noise pollution,followup,2,2,,,,,,2022-01-27 18:54:27,4396
60641f06b9c8e77f4605064a,ma_choice_v3_real1,60641f06b9c8e77f4605064a,8,Washer/dryer in unit,followup,2,2,,,,,,2022-01-27 18:54:27,4397
60641f06b9c8e77f4605064a,ma_choice_v3_real1,60641f06b9c8e77f4605064a,0,Closeness to parks,followup,2,2,,,,,,2022-01-27 18:54:27,4398
60641f06b9c8e77f4605064a,ma_choice_v3_real1,60641f06b9c8e77f4605064a,7,Size of yard,followup,2,2,,,,,,2022-01-27 18:54:27,4399
60641f06b9c8e77f4605064a,ma_choice_v3_real1,60641f06b9c8e77f4605064a,9,Quality of heat/AC system,followup,2,2,,,,,,2022-01-27 18:54:27,4400
60641f06b9c8e77f4605064a,ma_choice_v3_real1,60641f06b9c8e77f4605064a,2,Closeness to public transportation,followup,2,2,,,,,,2022-01-27 18:54:27,4401
60641f06b9c8e77f4605064a,ma_choice_v3_real1,60641f06b9c8e77f4605064a,1,Closeness to cafes/restaurants,followup,2,2,,,,,,2022-01-27 18:54:27,4402
5de0b69ba91be311cb773b0b,ma_choice_v3_real1,5de0b69ba91be311cb773b0b,2,Closeness to public transportation,original,2,2,0,,,3846,,2022-01-27 18:54:30,4403
