subject,version,assignmentId,trial,practice,opt1_id,opt2_id,attributes,opt1_values,opt2_values,choice,orig_choice,rt,stamp,id
5f5f039252a9217cad40cc18,ma_choice_v4_movies_pilot3,5f5f039252a9217cad40cc18,0,1,-1,-1,"Science Fiction,Romantic,Funny,Drama,Violent,Art,Action,Fantasy World,Suspense","47,18,61,15,74,24,36,40,69","22,78,16,78,28,50,15,75,10",1,,31527,2022-06-24 17:57:05,153353
5f5f039252a9217cad40cc18,ma_choice_v4_movies_pilot3,5f5f039252a9217cad40cc18,1,1,-1,-1,"Romantic,Science Fiction,Art,Fantasy World,Funny,Action,Violent,Drama,Suspense","100,15,11,31,3,20,1,21,2","21,47,69,54,47,83,78,61,78",1,,21043,2022-06-24 17:57:27,153354
5f5f039252a9217cad40cc18,ma_choice_v4_movies_pilot3,5f5f039252a9217cad40cc18,2,1,-1,-1,"Fantasy World,Suspense,Funny,Action,Science Fiction,Art,Drama,Violent,Romantic","46,24,73,34,45,36,21,30,37","25,2,0,3,20,70,65,3,14",1,,19925,2022-06-24 17:57:48,153355
5f5f039252a9217cad40cc18,ma_choice_v4_movies_pilot3,5f5f039252a9217cad40cc18,3,1,-1,-1,"Violent,Action,Fantasy World,Science Fiction,Suspense,Funny,Drama,Art,Romantic","13,11,57,8,0,9,4,66,0","57,69,23,37,80,35,78,42,41",0,,15094,2022-06-24 17:58:04,153356
5f5f039252a9217cad40cc18,ma_choice_v4_movies_pilot3,5f5f039252a9217cad40cc18,4,1,-1,-1,"Drama,Violent,Fantasy World,Art,Romantic,Suspense,Action,Funny,Science Fiction","80,39,34,65,0,19,6,1,17","22,3,65,13,25,90,79,30,87",0,,8311,2022-06-24 17:58:13,153357
62b5e1d73e3c296905ba2738,ma_choice_v4_movies_pilot3,62b5e1d73e3c296905ba2738,0,1,-1,-1,"Violent,Funny,Romantic,Art,Fantasy World,Suspense,Action,Science Fiction,Drama","30,73,37,36,46,24,34,45,21","3,0,14,70,25,2,3,20,65",0,,29532,2022-06-24 17:58:18,153358
5f5f039252a9217cad40cc18,ma_choice_v4_movies_pilot3,5f5f039252a9217cad40cc18,5,1,-1,-1,"Suspense,Science Fiction,Action,Fantasy World,Violent,Romantic,Funny,Drama,Art","48,22,3,34,26,9,1,84,74","12,51,27,55,3,35,80,12,8",0,,16225,2022-06-24 17:58:30,153359
62b5e1d73e3c296905ba2738,ma_choice_v4_movies_pilot3,62b5e1d73e3c296905ba2738,1,1,-1,-1,"Drama,Suspense,Fantasy World,Science Fiction,Funny,Art,Romantic,Action,Violent","47,87,19,14,12,38,52,33,2","5,1,41,43,52,4,1,3,32",1,,18082,2022-06-24 17:58:37,153360
5f5f039252a9217cad40cc18,ma_choice_v4_movies_pilot3,5f5f039252a9217cad40cc18,6,1,-1,-1,"Romantic,Fantasy World,Drama,Suspense,Funny,Violent,Science Fiction,Art,Action","1,41,5,1,52,32,43,4,3","52,19,47,87,12,2,14,38,33",1,,8553,2022-06-24 17:58:40,153361
5f5f039252a9217cad40cc18,ma_choice_v4_movies_pilot3,5f5f039252a9217cad40cc18,7,1,-1,-1,"Drama,Science Fiction,Suspense,Art,Fantasy World,Romantic,Action,Violent,Funny","51,18,3,99,26,15,3,1,5","14,48,31,10,46,41,24,37,65",0,,9018,2022-06-24 17:58:50,153362
62b5e1d73e3c296905ba2738,ma_choice_v4_movies_pilot3,62b5e1d73e3c296905ba2738,2,1,-1,-1,"Science Fiction,Funny,Drama,Suspense,Fantasy World,Romantic,Art,Action,Violent","51,64,39,20,66,21,23,56,27","30,1,61,54,39,75,58,34,5",0,,18295,2022-06-24 17:58:56,153363
5f5f039252a9217cad40cc18,ma_choice_v4_movies_pilot3,5f5f039252a9217cad40cc18,8,1,-1,-1,"Art,Action,Science Fiction,Suspense,Funny,Violent,Romantic,Fantasy World,Drama","14,18,47,18,56,13,39,61,11","79,66,24,62,16,68,3,34,73",1,,8398,2022-06-24 17:58:59,153364
5f5f039252a9217cad40cc18,ma_choice_v4_movies_pilot3,5f5f039252a9217cad40cc18,9,1,-1,-1,"Drama,Romantic,Action,Violent,Fantasy World,Science Fiction,Art,Suspense,Funny","39,21,56,27,66,51,23,20,64","61,75,34,5,39,30,58,54,1",1,,12131,2022-06-24 17:59:13,153365
62b5e1d73e3c296905ba2738,ma_choice_v4_movies_pilot3,62b5e1d73e3c296905ba2738,3,1,-1,-1,"Funny,Romantic,Drama,Suspense,Violent,Action,Fantasy World,Science Fiction,Art","1,9,84,48,26,3,34,22,74","80,35,12,12,3,27,55,51,8",0,,15365,2022-06-24 17:59:13,153366
62b5e1d73e3c296905ba2738,ma_choice_v4_movies_pilot3,62b5e1d73e3c296905ba2738,4,1,-1,-1,"Suspense,Romantic,Funny,Action,Art,Science Fiction,Fantasy World,Violent,Drama","78,21,47,83,69,47,54,78,61","2,100,3,20,11,15,31,1,21",0,,9506,2022-06-24 17:59:23,153367
62b5e1d73e3c296905ba2738,ma_choice_v4_movies_pilot3,62b5e1d73e3c296905ba2738,5,1,-1,-1,"Art,Romantic,Funny,Science Fiction,Drama,Violent,Suspense,Action,Fantasy World","66,0,9,8,4,13,0,11,57","42,41,35,37,78,57,80,69,23",1,,7846,2022-06-24 17:59:32,153368
62b5e1d73e3c296905ba2738,ma_choice_v4_movies_pilot3,62b5e1d73e3c296905ba2738,6,1,-1,-1,"Suspense,Drama,Romantic,Science Fiction,Funny,Fantasy World,Art,Action,Violent","90,22,25,87,30,65,13,79,3","19,80,0,17,1,34,65,6,39",0,,13377,2022-06-24 17:59:46,153369
5f5f039252a9217cad40cc18,ma_choice_v4_movies_pilot3,5f5f039252a9217cad40cc18,0,0,-1,-1,"Violent,Suspense,Action,Drama,Art,Fantasy World,Romantic,Funny,Science Fiction","2,71,14,4,7,36,0,1,99","30,1,51,30,31,66,27,61,39",1,,13700,2022-06-24 17:59:52,153370
62b5e1d73e3c296905ba2738,ma_choice_v4_movies_pilot3,62b5e1d73e3c296905ba2738,7,1,-1,-1,"Drama,Fantasy World,Romantic,Action,Art,Funny,Science Fiction,Violent,Suspense","15,40,18,36,24,61,47,74,69","78,75,78,15,50,16,22,28,10",1,,8648,2022-06-24 17:59:56,153371
5f5f039252a9217cad40cc18,ma_choice_v4_movies_pilot3,5f5f039252a9217cad40cc18,1,0,-1,-1,"Action,Drama,Fantasy World,Violent,Funny,Science Fiction,Suspense,Romantic,Art","71,12,79,15,23,46,78,24,19","8,42,34,74,1,4,6,3,79",1,,14366,2022-06-24 18:00:08,153372
62b5e1d73e3c296905ba2738,ma_choice_v4_movies_pilot3,62b5e1d73e3c296905ba2738,8,1,-1,-1,"Funny,Drama,Suspense,Action,Art,Science Fiction,Fantasy World,Romantic,Violent","5,51,3,3,99,18,26,15,1","65,14,31,24,10,48,46,41,37",1,,12731,2022-06-24 18:00:10,153373
5f5f039252a9217cad40cc18,ma_choice_v4_movies_pilot3,5f5f039252a9217cad40cc18,2,0,-1,-1,"Violent,Art,Action,Fantasy World,Suspense,Drama,Science Fiction,Romantic,Funny","77,69,11,58,77,76,16,82,6","17,18,64,34,19,17,68,4,73",0,,8375,2022-06-24 18:00:17,153374
62b5e1d73e3c296905ba2738,ma_choice_v4_movies_pilot3,62b5e1d73e3c296905ba2738,9,1,-1,-1,"Funny,Art,Romantic,Suspense,Fantasy World,Violent,Science Fiction,Drama,Action","56,14,39,18,61,13,47,11,18","16,79,3,62,34,68,24,73,66",1,,16353,2022-06-24 18:00:27,153375
5f5f039252a9217cad40cc18,ma_choice_v4_movies_pilot3,5f5f039252a9217cad40cc18,3,0,-1,-1,"Violent,Drama,Romantic,Suspense,Action,Funny,Fantasy World,Art,Science Fiction","15,26,22,27,32,1,41,74,24","70,68,2,0,3,70,84,18,79",1,,13829,2022-06-24 18:00:32,153376
5f5f039252a9217cad40cc18,ma_choice_v4_movies_pilot3,5f5f039252a9217cad40cc18,4,0,-1,-1,"Suspense,Drama,Funny,Science Fiction,Action,Violent,Romantic,Fantasy World,Art","11,8,1,1,6,35,0,30,88","40,71,22,25,35,1,80,53,14",1,,23595,2022-06-24 18:00:57,153377
62b5e1d73e3c296905ba2738,ma_choice_v4_movies_pilot3,62b5e1d73e3c296905ba2738,0,0,-1,-1,"Action,Science Fiction,Drama,Violent,Romantic,Art,Suspense,Funny,Fantasy World","7,22,20,60,0,7,77,50,26","42,81,64,11,23,29,19,9,50",0,,16983,2022-06-24 18:01:03,153378
5f5f039252a9217cad40cc18,ma_choice_v4_movies_pilot3,5f5f039252a9217cad40cc18,5,0,-1,-1,"Fantasy World,Suspense,Action,Romantic,Drama,Art,Science Fiction,Violent,Funny","36,45,63,9,73,2,19,29,1","67,15,21,42,26,26,45,1,51",1,,15424,2022-06-24 18:01:13,153379
62b5e1d73e3c296905ba2738,ma_choice_v4_movies_pilot3,62b5e1d73e3c296905ba2738,1,0,-1,-1,"Suspense,Fantasy World,Science Fiction,Funny,Action,Drama,Romantic,Violent,Art","76,37,77,66,92,76,50,81,26","12,66,28,4,11,56,30,18,94",0,,9661,2022-06-24 18:01:14,153380
62b5e1d73e3c296905ba2738,ma_choice_v4_movies_pilot3,62b5e1d73e3c296905ba2738,2,0,-1,-1,"Art,Suspense,Drama,Funny,Romantic,Fantasy World,Violent,Action,Science Fiction","10,11,65,75,39,42,4,51,72","95,35,5,1,7,63,75,9,40",0,,15540,2022-06-24 18:01:30,153381
62b5e1d73e3c296905ba2738,ma_choice_v4_movies_pilot3,62b5e1d73e3c296905ba2738,3,0,-1,-1,"Romantic,Drama,Fantasy World,Art,Suspense,Violent,Funny,Action,Science Fiction","6,6,41,23,4,1,44,13,45","27,48,81,64,61,25,85,42,80",1,,7804,2022-06-24 18:01:39,153382
5f5f039252a9217cad40cc18,ma_choice_v4_movies_pilot3,5f5f039252a9217cad40cc18,6,0,-1,-1,"Suspense,Science Fiction,Drama,Violent,Action,Art,Fantasy World,Funny,Romantic","57,60,79,83,55,11,69,1,5","4,30,7,13,10,31,46,69,83",0,,26302,2022-06-24 18:01:40,153383
62b5e1d73e3c296905ba2738,ma_choice_v4_movies_pilot3,62b5e1d73e3c296905ba2738,4,0,-1,-1,"Art,Drama,Funny,Romantic,Science Fiction,Fantasy World,Violent,Suspense,Action","23,75,4,37,36,66,49,89,73","43,30,24,5,15,35,1,3,3",0,,10631,2022-06-24 18:01:51,153384
5f5f039252a9217cad40cc18,ma_choice_v4_movies_pilot3,5f5f039252a9217cad40cc18,7,0,-1,-1,"Science Fiction,Romantic,Action,Suspense,Funny,Violent,Fantasy World,Drama,Art","1,2,2,0,1,34,29,56,94","46,52,23,33,66,13,58,28,22",0,,9746,2022-06-24 18:01:51,153385
62b5e1d73e3c296905ba2738,ma_choice_v4_movies_pilot3,62b5e1d73e3c296905ba2738,5,0,-1,-1,"Science Fiction,Violent,Suspense,Drama,Funny,Art,Action,Romantic,Fantasy World","35,32,56,7,1,8,79,8,39","10,1,19,76,23,30,14,70,14",1,,12110,2022-06-24 18:02:04,153386
5f5f039252a9217cad40cc18,ma_choice_v4_movies_pilot3,5f5f039252a9217cad40cc18,8,0,-1,-1,"Drama,Funny,Science Fiction,Action,Fantasy World,Violent,Romantic,Art,Suspense","42,67,24,12,33,1,87,6,14","72,7,100,36,74,70,0,55,83",1,,20802,2022-06-24 18:02:13,153387
62b5e1d73e3c296905ba2738,ma_choice_v4_movies_pilot3,62b5e1d73e3c296905ba2738,6,0,-1,-1,"Romantic,Violent,Action,Art,Suspense,Science Fiction,Fantasy World,Drama,Funny","7,1,35,3,73,26,35,45,2","68,31,74,24,24,67,64,17,69",1,,15792,2022-06-24 18:02:21,153388
5f5f039252a9217cad40cc18,ma_choice_v4_movies_pilot3,5f5f039252a9217cad40cc18,9,0,-1,-1,"Funny,Fantasy World,Violent,Drama,Art,Romantic,Action,Science Fiction,Suspense","15,45,71,51,50,47,50,23,84","56,81,15,76,5,21,8,48,6",0,,7994,2022-06-24 18:02:22,153389
62b5e1d73e3c296905ba2738,ma_choice_v4_movies_pilot3,62b5e1d73e3c296905ba2738,7,0,-1,-1,"Drama,Funny,Action,Science Fiction,Suspense,Art,Romantic,Fantasy World,Violent","18,22,8,38,1,9,63,68,1","75,2,32,63,76,80,7,41,68",1,,11092,2022-06-24 18:02:33,153390
5f5f039252a9217cad40cc18,ma_choice_v4_movies_pilot3,5f5f039252a9217cad40cc18,10,0,-1,-1,"Art,Violent,Action,Science Fiction,Fantasy World,Drama,Romantic,Funny,Suspense","15,2,28,41,75,5,9,9,2","60,30,2,19,46,73,74,60,26",1,,10681,2022-06-24 18:02:34,153391
5f5f039252a9217cad40cc18,ma_choice_v4_movies_pilot3,5f5f039252a9217cad40cc18,11,0,-1,-1,"Suspense,Fantasy World,Drama,Science Fiction,Action,Funny,Violent,Romantic,Art","48,37,79,14,5,14,66,11,27","12,58,15,45,37,53,5,38,6",1,,12434,2022-06-24 18:02:47,153392
62b5e1d73e3c296905ba2738,ma_choice_v4_movies_pilot3,62b5e1d73e3c296905ba2738,8,0,-1,-1,"Science Fiction,Fantasy World,Suspense,Action,Funny,Art,Romantic,Drama,Violent","40,47,20,20,80,14,31,14,15","14,26,71,89,6,69,10,64,79",1,,14038,2022-06-24 18:02:48,153393
5f5f039252a9217cad40cc18,ma_choice_v4_movies_pilot3,5f5f039252a9217cad40cc18,12,0,-1,-1,"Art,Action,Science Fiction,Romantic,Suspense,Violent,Fantasy World,Funny,Drama","23,73,36,37,89,49,66,4,75","43,3,15,5,3,1,35,24,30",0,,11530,2022-06-24 18:03:00,153394
6100642b95c4e149c6e44c38,ma_choice_v4_movies_pilot3,6100642b95c4e149c6e44c38,0,1,-1,-1,"Suspense,Romantic,Fantasy World,Funny,Violent,Action,Drama,Science Fiction,Art","20,21,66,64,27,56,39,51,23","54,75,39,1,5,34,61,30,58",0,,22336,2022-06-24 18:03:02,153395
62b5e1d73e3c296905ba2738,ma_choice_v4_movies_pilot3,62b5e1d73e3c296905ba2738,9,0,-1,-1,"Funny,Science Fiction,Romantic,Drama,Violent,Action,Fantasy World,Art,Suspense","1,27,3,6,61,49,63,0,1","63,47,53,67,20,25,37,30,26",1,,14718,2022-06-24 18:03:04,153396
6100642b95c4e149c6e44c38,ma_choice_v4_movies_pilot3,6100642b95c4e149c6e44c38,1,1,-1,-1,"Drama,Romantic,Art,Violent,Science Fiction,Funny,Fantasy World,Suspense,Action","14,41,10,37,48,65,46,31,24","51,15,99,1,18,5,26,3,3",0,,8057,2022-06-24 18:03:11,153397
62b5e1d73e3c296905ba2738,ma_choice_v4_movies_pilot3,62b5e1d73e3c296905ba2738,10,0,-1,-1,"Science Fiction,Suspense,Funny,Drama,Violent,Fantasy World,Romantic,Action,Art","0,23,6,54,77,18,78,4,87","35,1,37,2,1,41,3,32,54",0,,8177,2022-06-24 18:03:13,153398
5f5f039252a9217cad40cc18,ma_choice_v4_movies_pilot3,5f5f039252a9217cad40cc18,13,0,-1,-1,"Drama,Action,Art,Romantic,Violent,Suspense,Science Fiction,Fantasy World,Funny","75,88,50,2,78,54,46,46,2","22,2,71,78,1,1,26,24,33",0,,13445,2022-06-24 18:03:14,153399
5f5f039252a9217cad40cc18,ma_choice_v4_movies_pilot3,5f5f039252a9217cad40cc18,14,0,-1,-1,"Romantic,Science Fiction,Art,Fantasy World,Suspense,Action,Violent,Drama,Funny","5,10,79,24,0,10,2,77,6","28,53,1,46,24,68,31,19,65",1,,9838,2022-06-24 18:03:25,153400
62b5e1d73e3c296905ba2738,ma_choice_v4_movies_pilot3,62b5e1d73e3c296905ba2738,11,0,-1,-1,"Suspense,Art,Fantasy World,Violent,Romantic,Drama,Funny,Science Fiction,Action","61,69,76,26,5,58,88,42,9","82,18,40,2,31,27,7,21,45",0,,15528,2022-06-24 18:03:29,153401
6100642b95c4e149c6e44c38,ma_choice_v4_movies_pilot3,6100642b95c4e149c6e44c38,2,1,-1,-1,"Drama,Fantasy World,Funny,Science Fiction,Art,Action,Violent,Romantic,Suspense","78,23,35,37,42,69,57,41,80","4,57,9,8,66,11,13,0,0",0,,18621,2022-06-24 18:03:31,153402
5f5f039252a9217cad40cc18,ma_choice_v4_movies_pilot3,5f5f039252a9217cad40cc18,15,0,-1,-1,"Art,Fantasy World,Drama,Action,Funny,Romantic,Suspense,Science Fiction,Violent","61,23,64,10,5,15,42,8,12","13,76,22,33,41,43,11,73,35",1,,11547,2022-06-24 18:03:37,153403
62b5e1d73e3c296905ba2738,ma_choice_v4_movies_pilot3,62b5e1d73e3c296905ba2738,12,0,-1,-1,"Suspense,Romantic,Art,Fantasy World,Action,Drama,Funny,Violent,Science Fiction","12,26,44,87,37,18,24,22,38","81,50,2,38,3,71,1,2,12",1,,8620,2022-06-24 18:03:39,153404
6100642b95c4e149c6e44c38,ma_choice_v4_movies_pilot3,6100642b95c4e149c6e44c38,3,1,-1,-1,"Art,Action,Drama,Violent,Suspense,Fantasy World,Science Fiction,Romantic,Funny","36,34,21,30,24,46,45,37,73","70,3,65,3,2,25,20,14,0",0,,8923,2022-06-24 18:03:41,153405
5f5f039252a9217cad40cc18,ma_choice_v4_movies_pilot3,5f5f039252a9217cad40cc18,16,0,-1,-1,"Suspense,Action,Fantasy World,Drama,Funny,Science Fiction,Romantic,Violent,Art","9,40,67,31,3,0,20,97,42","61,5,23,52,26,71,0,1,17",0,,9897,2022-06-24 18:03:48,153406
62b5e1d73e3c296905ba2738,ma_choice_v4_movies_pilot3,62b5e1d73e3c296905ba2738,13,0,-1,-1,"Art,Violent,Funny,Science Fiction,Suspense,Romantic,Drama,Action,Fantasy World","14,1,22,25,40,80,71,35,53","88,35,1,1,11,0,8,6,30",0,,9078,2022-06-24 18:03:49,153407
6100642b95c4e149c6e44c38,ma_choice_v4_movies_pilot3,6100642b95c4e149c6e44c38,4,1,-1,-1,"Drama,Action,Art,Fantasy World,Science Fiction,Funny,Romantic,Violent,Suspense","11,18,14,61,47,56,39,13,18","73,66,79,34,24,16,3,68,62",1,,8240,2022-06-24 18:03:50,153408
5f5f039252a9217cad40cc18,ma_choice_v4_movies_pilot3,5f5f039252a9217cad40cc18,17,0,-1,-1,"Romantic,Action,Science Fiction,Violent,Suspense,Fantasy World,Funny,Art,Drama","10,91,99,76,46,76,43,31,34","41,12,3,16,20,49,17,3,69",0,,12190,2022-06-24 18:04:01,153409
6100642b95c4e149c6e44c38,ma_choice_v4_movies_pilot3,6100642b95c4e149c6e44c38,5,1,-1,-1,"Violent,Suspense,Funny,Fantasy World,Action,Art,Romantic,Drama,Science Fiction","74,69,61,40,36,24,18,15,47","28,10,16,75,15,50,78,78,22",0,,11863,2022-06-24 18:04:03,153410
62b5e1d73e3c296905ba2738,ma_choice_v4_movies_pilot3,62b5e1d73e3c296905ba2738,14,0,-1,-1,"Funny,Action,Suspense,Romantic,Fantasy World,Drama,Science Fiction,Art,Violent","66,23,8,89,46,9,29,18,4","0,2,40,0,15,65,5,89,40",1,,13838,2022-06-24 18:04:04,153411
5f5f039252a9217cad40cc18,ma_choice_v4_movies_pilot3,5f5f039252a9217cad40cc18,18,0,-1,-1,"Action,Science Fiction,Romantic,Fantasy World,Drama,Violent,Art,Funny,Suspense","59,38,56,49,72,73,41,13,79","7,3,19,15,10,8,7,81,6",0,,7947,2022-06-24 18:04:10,153412
6100642b95c4e149c6e44c38,ma_choice_v4_movies_pilot3,6100642b95c4e149c6e44c38,6,1,-1,-1,"Funny,Science Fiction,Drama,Action,Romantic,Suspense,Art,Violent,Fantasy World","1,22,84,3,9,48,74,26,34","80,51,12,27,35,12,8,3,55",1,,10623,2022-06-24 18:04:14,153413
5f5f039252a9217cad40cc18,ma_choice_v4_movies_pilot3,5f5f039252a9217cad40cc18,19,0,-1,-1,"Suspense,Funny,Romantic,Science Fiction,Action,Violent,Fantasy World,Drama,Art","63,9,6,37,30,54,44,15,23","0,30,83,1,8,8,75,71,55",1,,9420,2022-06-24 18:04:21,153414
62b5e1d73e3c296905ba2738,ma_choice_v4_movies_pilot3,62b5e1d73e3c296905ba2738,15,0,-1,-1,"Funny,Violent,Science Fiction,Romantic,Art,Action,Fantasy World,Drama,Suspense","65,31,53,28,1,68,46,19,24","6,2,10,5,79,10,24,77,0",0,,17915,2022-06-24 18:04:23,153415
6100642b95c4e149c6e44c38,ma_choice_v4_movies_pilot3,6100642b95c4e149c6e44c38,7,1,-1,-1,"Funny,Fantasy World,Violent,Science Fiction,Suspense,Action,Art,Drama,Romantic","30,65,3,87,90,79,13,22,25","1,34,39,17,19,6,65,80,0",0,,7888,2022-06-24 18:04:23,153416
6100642b95c4e149c6e44c38,ma_choice_v4_movies_pilot3,6100642b95c4e149c6e44c38,8,1,-1,-1,"Suspense,Science Fiction,Action,Funny,Art,Drama,Fantasy World,Violent,Romantic","2,15,20,3,11,21,31,1,100","78,47,83,47,69,61,54,78,21",1,,7459,2022-06-24 18:04:32,153417
5f5f039252a9217cad40cc18,ma_choice_v4_movies_pilot3,5f5f039252a9217cad40cc18,20,0,-1,-1,"Drama,Fantasy World,Suspense,Action,Art,Science Fiction,Funny,Romantic,Violent","31,50,46,77,36,64,28,10,66","71,29,17,7,72,19,4,59,1",1,,11054,2022-06-24 18:04:33,153418
62b5e1d73e3c296905ba2738,ma_choice_v4_movies_pilot3,62b5e1d73e3c296905ba2738,16,0,-1,-1,"Suspense,Funny,Romantic,Action,Art,Science Fiction,Fantasy World,Drama,Violent","50,32,60,41,6,41,18,73,6","12,3,5,11,82,1,40,19,55",0,,9622,2022-06-24 18:04:34,153419
5f5f039252a9217cad40cc18,ma_choice_v4_movies_pilot3,5f5f039252a9217cad40cc18,21,0,-1,-1,"Violent,Funny,Science Fiction,Drama,Romantic,Suspense,Action,Fantasy World,Art","1,44,45,6,6,4,13,41,23","25,85,80,48,27,61,42,81,64",1,,7670,2022-06-24 18:04:42,153420
6100642b95c4e149c6e44c38,ma_choice_v4_movies_pilot3,6100642b95c4e149c6e44c38,9,1,-1,-1,"Action,Drama,Violent,Fantasy World,Art,Funny,Suspense,Science Fiction,Romantic","3,5,32,41,4,52,1,43,1","33,47,2,19,38,12,87,14,52",0,,12273,2022-06-24 18:04:45,153421
62b5e1d73e3c296905ba2738,ma_choice_v4_movies_pilot3,62b5e1d73e3c296905ba2738,17,0,-1,-1,"Violent,Suspense,Action,Art,Drama,Romantic,Science Fiction,Fantasy World,Funny","2,80,7,43,78,23,8,41,10","70,14,92,5,21,3,52,66,45",0,,13449,2022-06-24 18:04:48,153422
5f5f039252a9217cad40cc18,ma_choice_v4_movies_pilot3,5f5f039252a9217cad40cc18,22,0,-1,-1,"Action,Violent,Drama,Romantic,Funny,Art,Fantasy World,Suspense,Science Fiction","14,43,3,1,1,39,38,64,14","91,22,31,21,71,16,88,16,76",1,,9924,2022-06-24 18:04:53,153423
6100642b95c4e149c6e44c38,ma_choice_v4_movies_pilot3,6100642b95c4e149c6e44c38,0,0,-1,-1,"Funny,Suspense,Art,Violent,Fantasy World,Science Fiction,Action,Romantic,Drama","5,54,18,52,39,50,35,51,72","35,1,85,4,60,28,3,0,17",0,,8262,2022-06-24 18:05:00,153424
5f5f039252a9217cad40cc18,ma_choice_v4_movies_pilot3,5f5f039252a9217cad40cc18,23,0,-1,-1,"Fantasy World,Funny,Art,Action,Suspense,Science Fiction,Violent,Drama,Romantic","66,4,94,11,12,28,18,56,30","37,66,26,92,76,77,81,76,50",1,,8495,2022-06-24 18:05:02,153425
62b5e1d73e3c296905ba2738,ma_choice_v4_movies_pilot3,62b5e1d73e3c296905ba2738,18,0,-1,-1,"Suspense,Drama,Romantic,Action,Violent,Fantasy World,Art,Science Fiction,Funny","37,91,85,3,1,17,46,9,44","7,12,2,64,29,41,18,99,7",0,,16436,2022-06-24 18:05:05,153426
5f5f039252a9217cad40cc18,ma_choice_v4_movies_pilot3,5f5f039252a9217cad40cc18,24,0,-1,-1,"Violent,Funny,Action,Science Fiction,Suspense,Art,Drama,Fantasy World,Romantic","2,7,45,21,82,18,27,40,31","26,88,9,42,61,69,58,76,5",1,,8638,2022-06-24 18:05:12,153427
6100642b95c4e149c6e44c38,ma_choice_v4_movies_pilot3,6100642b95c4e149c6e44c38,1,0,-1,-1,"Romantic,Art,Suspense,Drama,Action,Science Fiction,Violent,Funny,Fantasy World","23,105,20,51,4,32,27,8,66","88,33,68,28,78,101,5,47,43",1,,12871,2022-06-24 18:05:14,153428
62b5e1d73e3c296905ba2738,ma_choice_v4_movies_pilot3,62b5e1d73e3c296905ba2738,19,0,-1,-1,"Romantic,Suspense,Drama,Funny,Violent,Fantasy World,Art,Science Fiction,Action","42,15,26,51,1,67,26,45,21","9,45,73,1,29,36,2,19,63",1,,11263,2022-06-24 18:05:18,153429
6100642b95c4e149c6e44c38,ma_choice_v4_movies_pilot3,6100642b95c4e149c6e44c38,2,0,-1,-1,"Violent,Funny,Drama,Science Fiction,Suspense,Fantasy World,Romantic,Action,Art","11,9,64,81,19,50,23,42,29","60,50,20,22,77,26,0,7,7",1,,8656,2022-06-24 18:05:24,153430
5f5f039252a9217cad40cc18,ma_choice_v4_movies_pilot3,5f5f039252a9217cad40cc18,25,0,-1,-1,"Suspense,Romantic,Violent,Fantasy World,Drama,Art,Funny,Science Fiction,Action","1,14,3,69,77,46,2,44,2","35,72,60,46,23,14,63,8,91",1,,14161,2022-06-24 18:05:27,153431
62b5e1d73e3c296905ba2738,ma_choice_v4_movies_pilot3,62b5e1d73e3c296905ba2738,20,0,-1,-1,"Funny,Romantic,Fantasy World,Action,Suspense,Art,Violent,Drama,Science Fiction","6,42,62,21,54,1,1,11,38","60,3,38,43,18,32,26,42,17",1,,15709,2022-06-24 18:05:34,153432
6100642b95c4e149c6e44c38,ma_choice_v4_movies_pilot3,6100642b95c4e149c6e44c38,3,0,-1,-1,"Action,Science Fiction,Romantic,Drama,Art,Fantasy World,Violent,Suspense,Funny","8,1,83,71,55,75,8,0,30","30,37,6,15,23,44,54,63,9",1,,11175,2022-06-24 18:05:36,153433
5f5f039252a9217cad40cc18,ma_choice_v4_movies_pilot3,5f5f039252a9217cad40cc18,26,0,-1,-1,"Funny,Violent,Art,Science Fiction,Action,Romantic,Fantasy World,Drama,Suspense","44,21,38,50,7,5,55,22,31","7,1,3,18,59,33,12,63,2",0,,9548,2022-06-24 18:05:37,153434
6100642b95c4e149c6e44c38,ma_choice_v4_movies_pilot3,6100642b95c4e149c6e44c38,4,0,-1,-1,"Funny,Drama,Art,Romantic,Action,Violent,Fantasy World,Suspense,Science Fiction","72,47,80,25,90,47,32,64,52","29,4,4,2,5,1,54,1,25",0,,7909,2022-06-24 18:05:45,153435
5f5f039252a9217cad40cc18,ma_choice_v4_movies_pilot3,5f5f039252a9217cad40cc18,27,0,-1,-1,"Science Fiction,Art,Suspense,Drama,Romantic,Funny,Violent,Action,Fantasy World","26,0,11,74,44,21,1,7,51","58,33,39,11,4,57,46,87,76",1,,10173,2022-06-24 18:05:49,153436
62b5e1d73e3c296905ba2738,ma_choice_v4_movies_pilot3,62b5e1d73e3c296905ba2738,21,0,-1,-1,"Funny,Violent,Suspense,Science Fiction,Fantasy World,Romantic,Action,Drama,Art","21,4,5,28,43,88,34,64,-1","1,37,75,0,13,0,7,23,51",0,,13097,2022-06-24 18:05:49,153437
6100642b95c4e149c6e44c38,ma_choice_v4_movies_pilot3,6100642b95c4e149c6e44c38,5,0,-1,-1,"Action,Suspense,Science Fiction,Drama,Romantic,Fantasy World,Violent,Funny,Art","25,27,56,57,30,71,33,82,2","3,0,30,11,74,29,1,13,55",0,,7608,2022-06-24 18:05:53,153438
5f5f039252a9217cad40cc18,ma_choice_v4_movies_pilot3,5f5f039252a9217cad40cc18,28,0,-1,-1,"Fantasy World,Romantic,Action,Art,Funny,Violent,Suspense,Drama,Science Fiction","31,3,84,-1,4,45,43,20,3","55,65,17,22,66,1,10,40,40",1,,8383,2022-06-24 18:05:58,153439
62b5e1d73e3c296905ba2738,ma_choice_v4_movies_pilot3,62b5e1d73e3c296905ba2738,22,0,-1,-1,"Violent,Action,Fantasy World,Art,Drama,Funny,Romantic,Science Fiction,Suspense","10,41,35,42,78,54,54,17,53","57,5,60,9,12,17,2,39,25",0,,11866,2022-06-24 18:06:01,153440
6100642b95c4e149c6e44c38,ma_choice_v4_movies_pilot3,6100642b95c4e149c6e44c38,6,0,-1,-1,"Drama,Violent,Art,Science Fiction,Action,Romantic,Funny,Fantasy World,Suspense","76,81,26,77,92,50,66,37,76","56,18,94,28,11,30,4,66,12",0,,8473,2022-06-24 18:06:03,153441
5f5f039252a9217cad40cc18,ma_choice_v4_movies_pilot3,5f5f039252a9217cad40cc18,29,0,-1,-1,"Art,Drama,Action,Suspense,Funny,Romantic,Science Fiction,Violent,Fantasy World","38,70,15,32,1,1,17,71,39","4,29,78,10,52,37,45,15,66",1,,9108,2022-06-24 18:06:08,153442
62b5e1d73e3c296905ba2738,ma_choice_v4_movies_pilot3,62b5e1d73e3c296905ba2738,23,0,-1,-1,"Suspense,Science Fiction,Violent,Fantasy World,Funny,Romantic,Action,Drama,Art","84,23,71,45,15,47,50,51,50","6,48,15,81,56,21,8,76,5",0,,7664,2022-06-24 18:06:10,153443
6100642b95c4e149c6e44c38,ma_choice_v4_movies_pilot3,6100642b95c4e149c6e44c38,7,0,-1,-1,"Action,Fantasy World,Art,Romantic,Funny,Violent,Drama,Suspense,Science Fiction","24,47,81,16,4,39,20,26,49","2,17,20,88,57,1,65,3,23",0,,7739,2022-06-24 18:06:11,153444
5f5f039252a9217cad40cc18,ma_choice_v4_movies_pilot3,5f5f039252a9217cad40cc18,30,0,-1,-1,"Art,Suspense,Action,Fantasy World,Drama,Romantic,Science Fiction,Violent,Funny","7,77,7,26,20,0,22,60,50","29,19,42,50,64,23,81,11,9",1,,8444,2022-06-24 18:06:18,153445
6100642b95c4e149c6e44c38,ma_choice_v4_movies_pilot3,6100642b95c4e149c6e44c38,8,0,-1,-1,"Funny,Science Fiction,Violent,Fantasy World,Action,Romantic,Suspense,Drama,Art","1,27,1,28,19,26,6,72,-1","24,100,22,54,75,0,31,51,46",1,,7428,2022-06-24 18:06:20,153446
5f5f039252a9217cad40cc18,ma_choice_v4_movies_pilot3,5f5f039252a9217cad40cc18,31,0,-1,-1,"Romantic,Action,Funny,Science Fiction,Drama,Suspense,Violent,Art,Fantasy World","78,19,66,14,11,9,13,15,83","15,62,14,70,79,73,87,49,46",1,,7635,2022-06-24 18:06:26,153447
6100642b95c4e149c6e44c38,ma_choice_v4_movies_pilot3,6100642b95c4e149c6e44c38,9,0,-1,-1,"Art,Funny,Violent,Fantasy World,Action,Science Fiction,Drama,Romantic,Suspense","30,63,20,37,25,47,67,53,26","0,1,61,63,49,27,6,3,1",1,,7488,2022-06-24 18:06:28,153448
62b5e1d73e3c296905ba2738,ma_choice_v4_movies_pilot3,62b5e1d73e3c296905ba2738,24,0,-1,-1,"Violent,Fantasy World,Action,Drama,Funny,Science Fiction,Art,Suspense,Romantic","8,75,8,71,30,1,55,0,83","54,44,30,15,9,37,23,63,6",1,,23076,2022-06-24 18:06:34,153449
6100642b95c4e149c6e44c38,ma_choice_v4_movies_pilot3,6100642b95c4e149c6e44c38,10,0,-1,-1,"Romantic,Drama,Funny,Science Fiction,Action,Art,Fantasy World,Suspense,Violent","3,21,45,52,92,5,66,14,70","23,78,10,8,7,43,41,80,2",0,,10821,2022-06-24 18:06:40,153450
5f5f039252a9217cad40cc18,ma_choice_v4_movies_pilot3,5f5f039252a9217cad40cc18,32,0,-1,-1,"Science Fiction,Art,Funny,Action,Fantasy World,Romantic,Violent,Suspense,Drama","17,32,60,43,38,3,26,18,42","38,1,6,21,62,42,1,54,11",1,,19978,2022-06-24 18:06:47,153451
62b5e1d73e3c296905ba2738,ma_choice_v4_movies_pilot3,62b5e1d73e3c296905ba2738,25,0,-1,-1,"Funny,Art,Romantic,Science Fiction,Drama,Suspense,Fantasy World,Violent,Action","35,21,13,35,30,73,47,62,78","0,57,83,5,86,7,27,10,6",0,,13030,2022-06-24 18:06:48,153452
6100642b95c4e149c6e44c38,ma_choice_v4_movies_pilot3,6100642b95c4e149c6e44c38,11,0,-1,-1,"Fantasy World,Drama,Violent,Science Fiction,Art,Suspense,Romantic,Funny,Action","34,16,13,45,3,42,45,55,44","61,39,34,25,45,0,15,2,14",0,,7540,2022-06-24 18:06:49,153453
5f5f039252a9217cad40cc18,ma_choice_v4_movies_pilot3,5f5f039252a9217cad40cc18,33,0,-1,-1,"Action,Suspense,Drama,Science Fiction,Funny,Art,Violent,Fantasy World,Romantic","30,75,17,17,1,13,47,65,5","7,45,76,63,24,72,12,29,37",1,,9009,2022-06-24 18:06:57,153454
6100642b95c4e149c6e44c38,ma_choice_v4_movies_pilot3,6100642b95c4e149c6e44c38,12,0,-1,-1,"Art,Funny,Drama,Action,Romantic,Fantasy World,Violent,Science Fiction,Suspense","7,1,4,14,0,36,2,99,71","31,61,30,51,27,66,30,39,1",1,,7791,2022-06-24 18:06:58,153455
62b5e1d73e3c296905ba2738,ma_choice_v4_movies_pilot3,62b5e1d73e3c296905ba2738,26,0,-1,-1,"Romantic,Art,Action,Fantasy World,Drama,Science Fiction,Suspense,Violent,Funny","30,2,25,71,57,56,27,33,82","74,55,3,29,11,30,0,1,13",0,,11581,2022-06-24 18:07:01,153456
6100642b95c4e149c6e44c38,ma_choice_v4_movies_pilot3,6100642b95c4e149c6e44c38,13,0,-1,-1,"Funny,Art,Fantasy World,Action,Romantic,Suspense,Drama,Science Fiction,Violent","35,21,47,78,13,73,30,35,62","0,57,27,6,83,7,86,5,10",0,,7406,2022-06-24 18:07:06,153457
62b5e1d73e3c296905ba2738,ma_choice_v4_movies_pilot3,62b5e1d73e3c296905ba2738,27,0,-1,-1,"Science Fiction,Funny,Art,Romantic,Fantasy World,Action,Suspense,Violent,Drama","20,25,34,40,48,19,2,1,73","79,5,8,3,84,82,74,65,19",1,,7476,2022-06-24 18:07:09,153458
6100642b95c4e149c6e44c38,ma_choice_v4_movies_pilot3,6100642b95c4e149c6e44c38,14,0,-1,-1,"Funny,Drama,Romantic,Action,Fantasy World,Art,Suspense,Science Fiction,Violent","6,77,5,10,24,79,0,10,2","65,19,28,68,46,1,24,53,31",1,,7942,2022-06-24 18:07:15,153459
5f5f039252a9217cad40cc18,ma_choice_v4_movies_pilot3,5f5f039252a9217cad40cc18,34,0,-1,-1,"Science Fiction,Romantic,Action,Art,Suspense,Funny,Violent,Fantasy World,Drama","6,43,12,25,76,1,2,67,16","55,14,80,87,15,22,71,40,59",1,,18899,2022-06-24 18:07:17,153460
62b5e1d73e3c296905ba2738,ma_choice_v4_movies_pilot3,62b5e1d73e3c296905ba2738,28,0,-1,-1,"Suspense,Funny,Violent,Action,Fantasy World,Drama,Art,Science Fiction,Romantic","70,1,36,81,34,26,61,10,11","2,58,1,22,56,5,7,33,70",0,,12097,2022-06-24 18:07:22,153461
5f5f039252a9217cad40cc18,ma_choice_v4_movies_pilot3,5f5f039252a9217cad40cc18,35,0,-1,-1,"Fantasy World,Science Fiction,Romantic,Drama,Art,Suspense,Funny,Action,Violent","28,27,26,72,-1,6,1,19,1","54,100,0,51,46,31,24,75,22",1,,12187,2022-06-24 18:07:30,153462
6100642b95c4e149c6e44c38,ma_choice_v4_movies_pilot3,6100642b95c4e149c6e44c38,15,0,-1,-1,"Drama,Suspense,Violent,Romantic,Art,Science Fiction,Fantasy World,Funny,Action","8,12,51,37,34,28,59,15,80","32,69,7,79,83,52,37,43,1",1,,15341,2022-06-24 18:07:31,153463
62b5e1d73e3c296905ba2738,ma_choice_v4_movies_pilot3,62b5e1d73e3c296905ba2738,29,0,-1,-1,"Action,Art,Science Fiction,Romantic,Violent,Funny,Drama,Fantasy World,Suspense","74,5,14,40,29,9,7,92,21","11,37,39,95,4,70,48,40,45",1,,13821,2022-06-24 18:07:37,153464
5f5f039252a9217cad40cc18,ma_choice_v4_movies_pilot3,5f5f039252a9217cad40cc18,36,0,-1,-1,"Fantasy World,Art,Funny,Science Fiction,Violent,Suspense,Drama,Action,Romantic","67,0,58,39,48,8,9,18,1","35,26,24,15,68,88,40,56,24",1,,9556,2022-06-24 18:07:41,153465
6100642b95c4e149c6e44c38,ma_choice_v4_movies_pilot3,6100642b95c4e149c6e44c38,16,0,-1,-1,"Science Fiction,Action,Violent,Art,Suspense,Romantic,Drama,Fantasy World,Funny","24,32,15,74,27,22,26,41,1","79,3,70,18,0,2,68,84,70",1,,8989,2022-06-24 18:07:41,153466
6100642b95c4e149c6e44c38,ma_choice_v4_movies_pilot3,6100642b95c4e149c6e44c38,17,0,-1,-1,"Romantic,Funny,Suspense,Drama,Art,Fantasy World,Science Fiction,Violent,Action","47,2,32,78,53,11,13,41,3","16,67,4,13,22,53,90,2,24",1,,8071,2022-06-24 18:07:50,153467
5f5f039252a9217cad40cc18,ma_choice_v4_movies_pilot3,5f5f039252a9217cad40cc18,37,0,-1,-1,"Drama,Romantic,Fantasy World,Suspense,Art,Science Fiction,Funny,Violent,Action","79,17,45,76,79,26,0,50,3","21,87,78,8,2,5,38,2,55",1,,11121,2022-06-24 18:07:53,153468
62b5e1d73e3c296905ba2738,ma_choice_v4_movies_pilot3,62b5e1d73e3c296905ba2738,30,0,-1,-1,"Science Fiction,Art,Romantic,Drama,Funny,Violent,Suspense,Action,Fantasy World","68,18,4,17,73,17,19,64,34","16,69,82,76,6,77,77,11,58",1,,22931,2022-06-24 18:08:01,153469
5f5f039252a9217cad40cc18,ma_choice_v4_movies_pilot3,5f5f039252a9217cad40cc18,38,0,-1,-1,"Drama,Action,Funny,Violent,Romantic,Science Fiction,Suspense,Fantasy World,Art","10,6,66,23,10,22,7,38,13","32,30,6,1,92,48,39,66,71",1,,11781,2022-06-24 18:08:06,153470
6100642b95c4e149c6e44c38,ma_choice_v4_movies_pilot3,6100642b95c4e149c6e44c38,18,0,-1,-1,"Romantic,Suspense,Violent,Action,Drama,Fantasy World,Science Fiction,Art,Funny","87,14,1,12,42,33,24,6,67","0,83,70,36,72,74,100,55,7",1,,16411,2022-06-24 18:08:08,153471
5f5f039252a9217cad40cc18,ma_choice_v4_movies_pilot3,5f5f039252a9217cad40cc18,39,0,-1,-1,"Funny,Art,Drama,Suspense,Violent,Science Fiction,Romantic,Action,Fantasy World","5,44,9,13,1,25,24,60,45","60,71,85,55,29,0,76,18,24",1,,7869,2022-06-24 18:08:15,153472
62b5e1d73e3c296905ba2738,ma_choice_v4_movies_pilot3,62b5e1d73e3c296905ba2738,31,0,-1,-1,"Action,Funny,Drama,Art,Suspense,Fantasy World,Romantic,Violent,Science Fiction","48,32,5,11,1,53,22,32,47","14,1,69,64,81,32,1,3,16",1,,14784,2022-06-24 18:08:17,153473
6100642b95c4e149c6e44c38,ma_choice_v4_movies_pilot3,6100642b95c4e149c6e44c38,19,0,-1,-1,"Action,Violent,Science Fiction,Drama,Funny,Art,Romantic,Suspense,Fantasy World","7,37,0,23,1,51,0,75,13","34,4,28,64,21,-1,88,5,43",0,,9557,2022-06-24 18:08:18,153474
6100642b95c4e149c6e44c38,ma_choice_v4_movies_pilot3,6100642b95c4e149c6e44c38,20,0,-1,-1,"Funny,Action,Violent,Suspense,Fantasy World,Art,Drama,Romantic,Science Fiction","23,14,1,19,14,30,76,70,10","1,79,32,56,39,8,7,8,35",1,,8124,2022-06-24 18:08:28,153475
62b5e1d73e3c296905ba2738,ma_choice_v4_movies_pilot3,62b5e1d73e3c296905ba2738,32,0,-1,-1,"Drama,Violent,Suspense,Science Fiction,Funny,Art,Fantasy World,Action,Romantic","36,57,73,19,64,14,37,90,47","73,1,11,44,0,47,63,4,5",0,,12363,2022-06-24 18:08:30,153476
5f5f039252a9217cad40cc18,ma_choice_v4_movies_pilot3,5f5f039252a9217cad40cc18,40,0,-1,-1,"Drama,Funny,Romantic,Action,Fantasy World,Suspense,Science Fiction,Violent,Art","4,18,1,89,74,49,103,78,71","44,78,52,7,49,19,41,3,7",1,,15722,2022-06-24 18:08:31,153477
6100642b95c4e149c6e44c38,ma_choice_v4_movies_pilot3,6100642b95c4e149c6e44c38,21,0,-1,-1,"Science Fiction,Funny,Suspense,Art,Drama,Romantic,Fantasy World,Violent,Action","79,5,74,8,19,3,84,65,82","20,25,2,34,73,40,48,1,19",0,,7455,2022-06-24 18:08:36,153478
62b5e1d73e3c296905ba2738,ma_choice_v4_movies_pilot3,62b5e1d73e3c296905ba2738,33,0,-1,-1,"Art,Romantic,Drama,Funny,Suspense,Action,Science Fiction,Fantasy World,Violent","31,83,7,69,4,10,30,46,13","11,5,79,1,57,55,60,69,83",1,,7348,2022-06-24 18:08:39,153479
5f5f039252a9217cad40cc18,ma_choice_v4_movies_pilot3,5f5f039252a9217cad40cc18,41,0,-1,-1,"Drama,Action,Fantasy World,Suspense,Funny,Science Fiction,Violent,Art,Romantic","22,7,68,5,33,4,1,33,73","79,31,31,84,1,30,26,2,47",1,,9166,2022-06-24 18:08:42,153480
6100642b95c4e149c6e44c38,ma_choice_v4_movies_pilot3,6100642b95c4e149c6e44c38,22,0,-1,-1,"Art,Fantasy World,Violent,Romantic,Funny,Action,Drama,Science Fiction,Suspense","24,64,31,68,69,74,17,67,24","3,35,1,7,2,35,45,26,73",0,,7564,2022-06-24 18:08:45,153481
5f5f039252a9217cad40cc18,ma_choice_v4_movies_pilot3,5f5f039252a9217cad40cc18,42,0,-1,-1,"Fantasy World,Suspense,Art,Violent,Science Fiction,Action,Drama,Funny,Romantic","64,24,24,31,67,74,17,69,68","35,73,3,1,26,35,45,2,7",1,,8100,2022-06-24 18:08:51,153482
62b5e1d73e3c296905ba2738,ma_choice_v4_movies_pilot3,62b5e1d73e3c296905ba2738,34,0,-1,-1,"Funny,Art,Violent,Science Fiction,Suspense,Romantic,Action,Fantasy World,Drama","66,22,1,40,10,65,17,55,40","4,-1,45,3,43,3,84,31,20",0,,11120,2022-06-24 18:08:51,153483
6100642b95c4e149c6e44c38,ma_choice_v4_movies_pilot3,6100642b95c4e149c6e44c38,23,0,-1,-1,"Art,Action,Suspense,Violent,Science Fiction,Romantic,Fantasy World,Funny,Drama","6,41,50,6,41,60,18,32,73","82,11,12,55,1,5,40,3,19",1,,8139,2022-06-24 18:08:54,153484
5f5f039252a9217cad40cc18,ma_choice_v4_movies_pilot3,5f5f039252a9217cad40cc18,43,0,-1,-1,"Science Fiction,Art,Drama,Suspense,Fantasy World,Action,Violent,Romantic,Funny","26,34,20,29,73,4,20,55,8","83,8,50,78,50,56,78,12,40",1,,9233,2022-06-24 18:09:01,153485
6100642b95c4e149c6e44c38,ma_choice_v4_movies_pilot3,6100642b95c4e149c6e44c38,24,0,-1,-1,"Violent,Art,Drama,Science Fiction,Suspense,Action,Romantic,Funny,Fantasy World","76,33,44,100,77,12,22,2,24","16,9,7,36,30,39,72,63,45",0,,10176,2022-06-24 18:09:05,153486
62b5e1d73e3c296905ba2738,ma_choice_v4_movies_pilot3,62b5e1d73e3c296905ba2738,35,0,-1,-1,"Drama,Funny,Action,Violent,Suspense,Science Fiction,Art,Fantasy World,Romantic","91,2,11,62,65,0,81,12,17","3,82,90,1,8,32,20,37,42",0,,16380,2022-06-24 18:09:08,153487
5f5f039252a9217cad40cc18,ma_choice_v4_movies_pilot3,5f5f039252a9217cad40cc18,44,0,-1,-1,"Science Fiction,Romantic,Suspense,Fantasy World,Funny,Action,Art,Violent,Drama","36,77,54,39,28,44,7,30,58","11,9,0,93,8,5,79,2,10",0,,13277,2022-06-24 18:09:15,153488
6100642b95c4e149c6e44c38,ma_choice_v4_movies_pilot3,6100642b95c4e149c6e44c38,25,0,-1,-1,"Romantic,Drama,Fantasy World,Art,Science Fiction,Action,Violent,Suspense,Funny","11,26,34,61,10,81,36,70,1","70,5,56,7,33,22,1,2,58",0,,11191,2022-06-24 18:09:17,153489
62b5e1d73e3c296905ba2738,ma_choice_v4_movies_pilot3,62b5e1d73e3c296905ba2738,36,0,-1,-1,"Science Fiction,Drama,Art,Action,Funny,Violent,Suspense,Fantasy World,Romantic","76,31,16,91,71,22,16,88,21","14,3,39,14,1,43,64,38,1",0,,8887,2022-06-24 18:09:18,153490
5f5f039252a9217cad40cc18,ma_choice_v4_movies_pilot3,5f5f039252a9217cad40cc18,45,0,-1,-1,"Violent,Art,Funny,Science Fiction,Action,Suspense,Drama,Fantasy World,Romantic","23,12,83,2,5,11,16,16,37","88,38,5,30,26,69,82,59,5",0,,9778,2022-06-24 18:09:26,153491
6100642b95c4e149c6e44c38,ma_choice_v4_movies_pilot3,6100642b95c4e149c6e44c38,26,0,-1,-1,"Science Fiction,Funny,Art,Drama,Fantasy World,Romantic,Action,Suspense,Violent","39,58,0,9,67,1,18,8,48","15,24,26,40,35,24,56,88,68",1,,14474,2022-06-24 18:09:33,153492
5f5f039252a9217cad40cc18,ma_choice_v4_movies_pilot3,5f5f039252a9217cad40cc18,46,0,-1,-1,"Suspense,Violent,Science Fiction,Action,Fantasy World,Drama,Romantic,Funny,Art","78,10,2,9,23,15,27,0,62","2,54,22,33,49,44,4,23,0",0,,7718,2022-06-24 18:09:35,153493
62b5e1d73e3c296905ba2738,ma_choice_v4_movies_pilot3,62b5e1d73e3c296905ba2738,37,0,-1,-1,"Art,Suspense,Funny,Romantic,Science Fiction,Fantasy World,Violent,Action,Drama","20,3,57,88,23,17,1,2,65","81,26,4,16,49,47,39,24,20",1,,17638,2022-06-24 18:09:37,153494
6100642b95c4e149c6e44c38,ma_choice_v4_movies_pilot3,6100642b95c4e149c6e44c38,27,0,-1,-1,"Art,Fantasy World,Funny,Action,Drama,Romantic,Violent,Suspense,Science Fiction","9,69,11,5,42,46,1,1,30","75,44,47,81,6,0,75,35,51",1,,7806,2022-06-24 18:09:41,153495
5f5f039252a9217cad40cc18,ma_choice_v4_movies_pilot3,5f5f039252a9217cad40cc18,47,0,-1,-1,"Science Fiction,Drama,Action,Romantic,Funny,Art,Violent,Fantasy World,Suspense","10,26,81,11,1,61,36,34,70","33,5,22,70,58,7,1,56,2",0,,11283,2022-06-24 18:09:47,153496
6100642b95c4e149c6e44c38,ma_choice_v4_movies_pilot3,6100642b95c4e149c6e44c38,28,0,-1,-1,"Funny,Science Fiction,Drama,Fantasy World,Art,Romantic,Action,Violent,Suspense","8,11,10,93,79,9,5,2,0","28,36,58,39,7,77,44,30,54",0,,9539,2022-06-24 18:09:52,153497
62b5e1d73e3c296905ba2738,ma_choice_v4_movies_pilot3,62b5e1d73e3c296905ba2738,38,0,-1,-1,"Science Fiction,Suspense,Romantic,Violent,Art,Action,Fantasy World,Funny,Drama","34,2,48,73,27,6,59,2,77","7,48,3,9,79,30,39,30,47",0,,15806,2022-06-24 18:09:54,153498
5f5f039252a9217cad40cc18,ma_choice_v4_movies_pilot3,5f5f039252a9217cad40cc18,48,0,-1,-1,"Drama,Fantasy World,Science Fiction,Action,Suspense,Art,Violent,Funny,Romantic","64,43,28,34,5,-1,4,21,88","23,13,0,7,75,51,37,1,0",0,,7723,2022-06-24 18:09:56,153499
6100642b95c4e149c6e44c38,ma_choice_v4_movies_pilot3,6100642b95c4e149c6e44c38,29,0,-1,-1,"Suspense,Art,Science Fiction,Fantasy World,Action,Romantic,Funny,Drama,Violent","25,107,32,45,15,21,53,70,33","4,12,103,75,41,0,12,6,5",0,,7723,2022-06-24 18:10:01,153500
5f5f039252a9217cad40cc18,ma_choice_v4_movies_pilot3,5f5f039252a9217cad40cc18,49,0,-1,-1,"Action,Violent,Science Fiction,Drama,Romantic,Fantasy World,Suspense,Funny,Art","32,1,35,2,3,41,1,37,54","4,77,0,54,78,18,23,6,87",1,,7703,2022-06-24 18:10:04,153501
6100642b95c4e149c6e44c38,ma_choice_v4_movies_pilot3,6100642b95c4e149c6e44c38,30,0,-1,-1,"Science Fiction,Drama,Violent,Funny,Romantic,Art,Suspense,Fantasy World,Action","33,14,65,76,7,16,1,74,14","70,68,6,10,63,90,89,46,48",0,,9126,2022-06-24 18:10:11,153502
62b5e1d73e3c296905ba2738,ma_choice_v4_movies_pilot3,62b5e1d73e3c296905ba2738,39,0,-1,-1,"Drama,Science Fiction,Fantasy World,Suspense,Action,Violent,Art,Funny,Romantic","30,39,66,1,51,30,31,61,27","4,99,36,71,14,2,7,1,0",1,,18270,2022-06-24 18:10:13,153503
5f5f039252a9217cad40cc18,ma_choice_v4_movies_pilot3,5f5f039252a9217cad40cc18,50,0,-1,-1,"Romantic,Fantasy World,Suspense,Funny,Violent,Action,Science Fiction,Art,Drama","2,35,7,72,1,27,7,3,12","23,56,28,6,53,3,27,69,76",1,,8237,2022-06-24 18:10:14,153504
5f5f039252a9217cad40cc18,ma_choice_v4_movies_pilot3,5f5f039252a9217cad40cc18,51,0,-1,-1,"Art,Violent,Drama,Fantasy World,Action,Funny,Suspense,Science Fiction,Romantic","57,79,13,79,22,4,57,58,13","36,1,62,25,74,48,21,29,43",0,,9854,2022-06-24 18:10:25,153505
5f5f039252a9217cad40cc18,ma_choice_v4_movies_pilot3,5f5f039252a9217cad40cc18,52,0,-1,-1,"Science Fiction,Romantic,Fantasy World,Action,Art,Funny,Violent,Suspense,Drama","72,39,42,51,10,75,4,11,65","40,7,63,9,95,1,75,35,5",1,,8257,2022-06-24 18:10:34,153506
62b5e1d73e3c296905ba2738,ma_choice_v4_movies_pilot3,62b5e1d73e3c296905ba2738,40,0,-1,-1,"Romantic,Drama,Suspense,Science Fiction,Funny,Action,Fantasy World,Art,Violent","92,32,39,48,6,30,66,71,1","10,10,7,22,66,6,38,13,23",0,,19896,2022-06-24 18:10:34,153507
5f5f039252a9217cad40cc18,ma_choice_v4_movies_pilot3,5f5f039252a9217cad40cc18,53,0,-1,-1,"Art,Romantic,Suspense,Funny,Fantasy World,Violent,Science Fiction,Drama,Action","76,44,21,21,100,27,1,64,23","10,3,0,1,49,1,28,41,2",0,,8059,2022-06-24 18:10:43,153508
6100642b95c4e149c6e44c38,ma_choice_v4_movies_pilot3,6100642b95c4e149c6e44c38,31,0,-1,-1,"Suspense,Science Fiction,Drama,Violent,Art,Fantasy World,Action,Romantic,Funny","78,2,15,10,62,23,9,27,0","2,22,44,54,0,49,33,4,23",1,,36026,2022-06-24 18:10:48,153509
5f5f039252a9217cad40cc18,ma_choice_v4_movies_pilot3,5f5f039252a9217cad40cc18,54,0,-1,-1,"Violent,Art,Funny,Romantic,Action,Drama,Fantasy World,Suspense,Science Fiction","55,82,3,5,11,19,40,12,1","6,6,32,60,41,73,18,50,41",0,,7636,2022-06-24 18:10:52,153510
62b5e1d73e3c296905ba2738,ma_choice_v4_movies_pilot3,62b5e1d73e3c296905ba2738,41,0,-1,-1,"Art,Violent,Fantasy World,Action,Romantic,Science Fiction,Drama,Suspense,Funny","12,23,16,5,37,2,16,11,83","38,88,59,26,5,30,82,69,5",1,,18694,2022-06-24 18:10:54,153511
6100642b95c4e149c6e44c38,ma_choice_v4_movies_pilot3,6100642b95c4e149c6e44c38,32,0,-1,-1,"Action,Suspense,Fantasy World,Funny,Drama,Violent,Science Fiction,Art,Romantic","28,58,51,1,63,1,20,24,31","61,1,30,25,26,73,42,71,0",1,,11036,2022-06-24 18:11:00,153512
5f5f039252a9217cad40cc18,ma_choice_v4_movies_pilot3,5f5f039252a9217cad40cc18,55,0,-1,-1,"Fantasy World,Suspense,Action,Romantic,Science Fiction,Art,Funny,Violent,Drama","69,1,5,46,30,9,11,1,42","44,35,81,0,51,75,47,75,6",1,,7914,2022-06-24 18:11:00,153513
62b5e1d73e3c296905ba2738,ma_choice_v4_movies_pilot3,62b5e1d73e3c296905ba2738,42,0,-1,-1,"Funny,Art,Suspense,Action,Drama,Science Fiction,Violent,Fantasy World,Romantic","0,80,2,5,20,18,26,41,47","52,27,69,75,86,58,4,62,25",1,,7675,2022-06-24 18:11:02,153514
5f5f039252a9217cad40cc18,ma_choice_v4_movies_pilot3,5f5f039252a9217cad40cc18,56,0,-1,-1,"Violent,Funny,Science Fiction,Action,Drama,Fantasy World,Art,Romantic,Suspense","73,25,42,61,26,30,71,0,1","1,1,20,28,63,51,24,31,58",0,,7840,2022-06-24 18:11:09,153515
6100642b95c4e149c6e44c38,ma_choice_v4_movies_pilot3,6100642b95c4e149c6e44c38,33,0,-1,-1,"Suspense,Drama,Romantic,Science Fiction,Violent,Funny,Action,Fantasy World,Art","81,71,50,12,2,1,3,38,2","12,18,26,38,22,24,37,87,44",1,,8690,2022-06-24 18:11:10,153516
62b5e1d73e3c296905ba2738,ma_choice_v4_movies_pilot3,62b5e1d73e3c296905ba2738,43,0,-1,-1,"Romantic,Suspense,Drama,Science Fiction,Art,Violent,Action,Funny,Fantasy World","37,12,8,28,34,51,80,15,59","79,69,32,52,83,7,1,43,37",1,,9082,2022-06-24 18:11:12,153517
5f5f039252a9217cad40cc18,ma_choice_v4_movies_pilot3,5f5f039252a9217cad40cc18,57,0,-1,-1,"Science Fiction,Art,Drama,Action,Romantic,Suspense,Fantasy World,Violent,Funny","39,9,12,5,2,25,60,57,17","17,42,78,41,54,53,35,10,54",1,,7955,2022-06-24 18:11:18,153518
5f5f039252a9217cad40cc18,ma_choice_v4_movies_pilot3,5f5f039252a9217cad40cc18,58,0,-1,-1,"Violent,Romantic,Funny,Action,Science Fiction,Art,Drama,Fantasy World,Suspense","70,3,45,92,52,5,21,66,14","2,23,10,7,8,43,78,41,80",1,,9077,2022-06-24 18:11:28,153519
6100642b95c4e149c6e44c38,ma_choice_v4_movies_pilot3,6100642b95c4e149c6e44c38,34,0,-1,-1,"Art,Suspense,Action,Drama,Fantasy World,Funny,Violent,Romantic,Science Fiction","46,37,3,91,17,44,1,85,9","18,7,64,12,41,7,29,2,99",1,,22006,2022-06-24 18:11:33,153520
5f5f039252a9217cad40cc18,ma_choice_v4_movies_pilot3,5f5f039252a9217cad40cc18,59,0,-1,-1,"Suspense,Drama,Science Fiction,Fantasy World,Romantic,Art,Action,Violent,Funny","45,48,39,40,95,37,11,4,70","21,7,14,92,40,5,74,29,9",0,,7791,2022-06-24 18:11:37,153521
62b5e1d73e3c296905ba2738,ma_choice_v4_movies_pilot3,62b5e1d73e3c296905ba2738,44,0,-1,-1,"Funny,Science Fiction,Art,Drama,Violent,Suspense,Romantic,Fantasy World,Action","47,51,75,6,75,35,0,44,81","11,30,9,42,1,1,46,69,5",0,,24176,2022-06-24 18:11:38,153522
62b5e1d73e3c296905ba2738,ma_choice_v4_movies_pilot3,62b5e1d73e3c296905ba2738,45,0,-1,-1,"Science Fiction,Art,Romantic,Violent,Funny,Fantasy World,Suspense,Drama,Action","55,87,14,71,22,40,15,59,80","6,25,43,2,1,67,76,16,12",0,,8119,2022-06-24 18:11:47,153523
6100642b95c4e149c6e44c38,ma_choice_v4_movies_pilot3,6100642b95c4e149c6e44c38,35,0,-1,-1,"Art,Funny,Action,Romantic,Suspense,Fantasy World,Drama,Violent,Science Fiction","13,66,6,10,7,38,10,23,22","71,6,30,92,39,66,32,1,48",0,,13488,2022-06-24 18:11:47,153524
5f5f039252a9217cad40cc18,ma_choice_v4_movies_pilot3,5f5f039252a9217cad40cc18,60,0,-1,-1,"Drama,Art,Violent,Suspense,Fantasy World,Funny,Science Fiction,Action,Romantic","30,21,62,73,47,35,35,78,13","86,57,10,7,27,0,5,6,83",1,,13186,2022-06-24 18:11:51,153525
6100642b95c4e149c6e44c38,ma_choice_v4_movies_pilot3,6100642b95c4e149c6e44c38,36,0,-1,-1,"Action,Suspense,Romantic,Fantasy World,Art,Drama,Science Fiction,Violent,Funny","18,6,49,91,7,73,42,1,37","75,57,0,37,50,33,101,85,1",1,,8471,2022-06-24 18:11:57,153526
62b5e1d73e3c296905ba2738,ma_choice_v4_movies_pilot3,62b5e1d73e3c296905ba2738,46,0,-1,-1,"Fantasy World,Violent,Action,Art,Drama,Funny,Romantic,Science Fiction,Suspense","39,71,15,38,70,1,1,17,32","66,15,78,4,29,52,37,45,10",0,,11682,2022-06-24 18:11:59,153527
5f5f039252a9217cad40cc18,ma_choice_v4_movies_pilot3,5f5f039252a9217cad40cc18,61,0,-1,-1,"Suspense,Romantic,Action,Violent,Fantasy World,Art,Funny,Science Fiction,Drama","6,49,18,1,91,7,37,42,73","57,0,75,85,37,50,1,101,33",1,,11595,2022-06-24 18:12:07,153528
62b5e1d73e3c296905ba2738,ma_choice_v4_movies_pilot3,62b5e1d73e3c296905ba2738,47,0,-1,-1,"Fantasy World,Drama,Art,Science Fiction,Suspense,Action,Romantic,Funny,Violent","75,73,35,82,73,34,5,35,49","44,9,2,34,26,5,88,3,3",0,,7391,2022-06-24 18:12:08,153529
6100642b95c4e149c6e44c38,ma_choice_v4_movies_pilot3,6100642b95c4e149c6e44c38,37,0,-1,-1,"Science Fiction,Violent,Action,Art,Funny,Fantasy World,Drama,Romantic,Suspense","1,68,13,65,6,34,62,14,80","29,14,71,16,45,60,14,86,19",1,,11839,2022-06-24 18:12:10,153530
5f5f039252a9217cad40cc18,ma_choice_v4_movies_pilot3,5f5f039252a9217cad40cc18,62,0,-1,-1,"Funny,Art,Science Fiction,Suspense,Violent,Action,Fantasy World,Drama,Romantic","2,33,100,77,76,12,24,44,22","63,9,36,30,16,39,45,7,72",0,,8471,2022-06-24 18:12:14,153531
62b5e1d73e3c296905ba2738,ma_choice_v4_movies_pilot3,62b5e1d73e3c296905ba2738,48,0,-1,-1,"Funny,Art,Drama,Action,Suspense,Science Fiction,Violent,Fantasy World,Romantic","70,18,68,3,0,79,70,84,2","1,74,26,32,27,24,15,41,22",0,,7542,2022-06-24 18:12:16,153532
62b5e1d73e3c296905ba2738,ma_choice_v4_movies_pilot3,62b5e1d73e3c296905ba2738,49,0,-1,-1,"Science Fiction,Drama,Fantasy World,Violent,Romantic,Funny,Action,Art,Suspense","26,79,45,50,17,0,3,79,76","5,21,78,2,87,38,55,2,8",0,,7290,2022-06-24 18:12:25,153533
5f5f039252a9217cad40cc18,ma_choice_v4_movies_pilot3,5f5f039252a9217cad40cc18,63,0,-1,-1,"Action,Science Fiction,Violent,Drama,Art,Romantic,Suspense,Funny,Fantasy World","30,7,9,47,79,3,48,30,39","6,34,73,77,27,48,2,2,59",1,,10238,2022-06-24 18:12:25,153534
6100642b95c4e149c6e44c38,ma_choice_v4_movies_pilot3,6100642b95c4e149c6e44c38,38,0,-1,-1,"Action,Violent,Fantasy World,Science Fiction,Art,Suspense,Funny,Drama,Romantic","14,3,32,16,64,81,1,69,1","48,32,53,47,11,1,32,5,22",1,,19535,2022-06-24 18:12:30,153535
5f5f039252a9217cad40cc18,ma_choice_v4_movies_pilot3,5f5f039252a9217cad40cc18,64,0,-1,-1,"Action,Art,Fantasy World,Violent,Romantic,Drama,Suspense,Science Fiction,Funny","2,20,17,1,88,65,3,23,57","24,81,47,39,16,20,26,49,4",1,,8953,2022-06-24 18:12:35,153536
62b5e1d73e3c296905ba2738,ma_choice_v4_movies_pilot3,62b5e1d73e3c296905ba2738,50,0,-1,-1,"Romantic,Drama,Violent,Funny,Art,Science Fiction,Action,Fantasy World,Suspense","5,10,6,66,2,35,2,57,5","28,73,39,7,45,9,23,20,71",1,,12302,2022-06-24 18:12:38,153537
6100642b95c4e149c6e44c38,ma_choice_v4_movies_pilot3,6100642b95c4e149c6e44c38,39,0,-1,-1,"Science Fiction,Funny,Fantasy World,Drama,Romantic,Art,Violent,Suspense,Action","17,1,65,17,5,13,47,75,30","63,24,29,76,37,72,12,45,7",0,,8655,2022-06-24 18:12:40,153538
5f5f039252a9217cad40cc18,ma_choice_v4_movies_pilot3,5f5f039252a9217cad40cc18,65,0,-1,-1,"Suspense,Fantasy World,Drama,Art,Romantic,Science Fiction,Action,Violent,Funny","37,17,91,46,85,9,3,1,44","7,41,12,18,2,99,64,29,7",0,,7729,2022-06-24 18:12:44,153539
62b5e1d73e3c296905ba2738,ma_choice_v4_movies_pilot3,62b5e1d73e3c296905ba2738,51,0,-1,-1,"Drama,Fantasy World,Romantic,Violent,Action,Science Fiction,Suspense,Art,Funny","62,34,14,68,13,1,80,65,6","14,60,86,14,71,29,19,16,45",0,,7536,2022-06-24 18:12:46,153540
6100642b95c4e149c6e44c38,ma_choice_v4_movies_pilot3,6100642b95c4e149c6e44c38,40,0,-1,-1,"Violent,Fantasy World,Suspense,Art,Science Fiction,Action,Drama,Funny,Romantic","26,31,84,2,30,31,79,1,47","1,68,5,33,4,7,22,33,73",0,,7974,2022-06-24 18:12:49,153541
5f5f039252a9217cad40cc18,ma_choice_v4_movies_pilot3,5f5f039252a9217cad40cc18,66,0,-1,-1,"Suspense,Fantasy World,Funny,Art,Drama,Violent,Action,Romantic,Science Fiction","30,62,9,84,76,75,8,47,49","62,38,43,36,36,7,84,14,100",0,,7598,2022-06-24 18:12:52,153542
62b5e1d73e3c296905ba2738,ma_choice_v4_movies_pilot3,62b5e1d73e3c296905ba2738,52,0,-1,-1,"Drama,Violent,Funny,Romantic,Art,Fantasy World,Action,Science Fiction,Suspense","6,5,12,0,12,75,41,103,4","70,33,53,21,107,45,15,32,25",0,,8280,2022-06-24 18:12:56,153543
6100642b95c4e149c6e44c38,ma_choice_v4_movies_pilot3,6100642b95c4e149c6e44c38,41,0,-1,-1,"Funny,Romantic,Action,Fantasy World,Art,Violent,Suspense,Drama,Science Fiction","56,21,8,81,5,15,6,76,48","15,47,50,45,50,71,84,51,23",1,,12105,2022-06-24 18:13:02,153544
5f5f039252a9217cad40cc18,ma_choice_v4_movies_pilot3,5f5f039252a9217cad40cc18,67,0,-1,-1,"Action,Art,Suspense,Funny,Science Fiction,Violent,Fantasy World,Romantic,Drama","11,81,65,2,0,62,12,17,91","90,20,8,82,32,1,37,42,3",0,,10400,2022-06-24 18:13:03,153545
62b5e1d73e3c296905ba2738,ma_choice_v4_movies_pilot3,62b5e1d73e3c296905ba2738,53,0,-1,-1,"Science Fiction,Violent,Fantasy World,Drama,Funny,Action,Art,Romantic,Suspense","46,78,46,75,2,88,50,2,54","26,1,24,22,33,2,71,78,1",0,,7425,2022-06-24 18:13:04,153546
6100642b95c4e149c6e44c38,ma_choice_v4_movies_pilot3,6100642b95c4e149c6e44c38,42,0,-1,-1,"Drama,Science Fiction,Romantic,Funny,Suspense,Fantasy World,Action,Violent,Art","40,40,65,66,10,55,17,1,22","20,3,3,4,43,31,84,45,-1",0,,7642,2022-06-24 18:13:10,153547
5f5f039252a9217cad40cc18,ma_choice_v4_movies_pilot3,5f5f039252a9217cad40cc18,68,0,-1,-1,"Fantasy World,Science Fiction,Drama,Romantic,Action,Funny,Suspense,Violent,Art","53,90,13,16,24,67,4,2,22","11,13,78,47,3,2,32,41,53",0,,11851,2022-06-24 18:13:16,153548
6100642b95c4e149c6e44c38,ma_choice_v4_movies_pilot3,6100642b95c4e149c6e44c38,43,0,-1,-1,"Suspense,Romantic,Funny,Violent,Science Fiction,Fantasy World,Action,Drama,Art","39,4,57,46,58,76,87,11,33","11,44,21,1,26,51,7,74,0",0,,7389,2022-06-24 18:13:19,153549
5f5f039252a9217cad40cc18,ma_choice_v4_movies_pilot3,5f5f039252a9217cad40cc18,69,0,-1,-1,"Art,Funny,Romantic,Suspense,Science Fiction,Action,Fantasy World,Drama,Violent","80,0,47,2,18,5,41,20,26","27,52,25,69,58,75,62,86,4",0,,7702,2022-06-24 18:13:25,153550
6100642b95c4e149c6e44c38,ma_choice_v4_movies_pilot3,6100642b95c4e149c6e44c38,44,0,-1,-1,"Science Fiction,Action,Art,Funny,Romantic,Fantasy World,Suspense,Drama,Violent","38,59,41,13,56,49,79,72,73","3,7,7,81,19,15,6,10,8",1,,7638,2022-06-24 18:13:27,153551
62b5e1d73e3c296905ba2738,ma_choice_v4_movies_pilot3,62b5e1d73e3c296905ba2738,54,0,-1,-1,"Fantasy World,Suspense,Romantic,Drama,Funny,Action,Science Fiction,Art,Violent","35,88,24,40,24,56,15,26,68","67,8,1,9,58,18,39,0,48",0,,26637,2022-06-24 18:13:32,153552
5f5f039252a9217cad40cc18,ma_choice_v4_movies_pilot3,5f5f039252a9217cad40cc18,70,0,-1,-1,"Violent,Romantic,Drama,Action,Fantasy World,Science Fiction,Suspense,Funny,Art","22,26,18,37,87,38,12,24,44","2,50,71,3,38,12,81,1,2",0,,7686,2022-06-24 18:13:34,153553
62b5e1d73e3c296905ba2738,ma_choice_v4_movies_pilot3,62b5e1d73e3c296905ba2738,55,0,-1,-1,"Romantic,Suspense,Action,Funny,Art,Science Fiction,Fantasy World,Drama,Violent","24,13,60,5,44,25,45,9,1","76,55,18,60,71,0,24,85,29",1,,8635,2022-06-24 18:13:42,153554
5f5f039252a9217cad40cc18,ma_choice_v4_movies_pilot3,5f5f039252a9217cad40cc18,71,0,-1,-1,"Art,Romantic,Suspense,Action,Funny,Violent,Drama,Fantasy World,Science Fiction","70,0,14,3,49,14,77,63,25","9,20,77,35,11,44,19,41,89",1,,8161,2022-06-24 18:13:43,153555
6100642b95c4e149c6e44c38,ma_choice_v4_movies_pilot3,6100642b95c4e149c6e44c38,45,0,-1,-1,"Violent,Science Fiction,Action,Art,Drama,Funny,Suspense,Romantic,Fantasy World","1,44,4,47,73,0,11,5,63","57,19,90,14,36,64,73,47,37",0,,18825,2022-06-24 18:13:47,153556
5f5f039252a9217cad40cc18,ma_choice_v4_movies_pilot3,5f5f039252a9217cad40cc18,72,0,-1,-1,"Funny,Romantic,Fantasy World,Art,Drama,Violent,Science Fiction,Action,Suspense","20,36,67,20,22,1,36,35,5","0,13,35,91,72,69,0,5,53",1,,7590,2022-06-24 18:13:52,153557
62b5e1d73e3c296905ba2738,ma_choice_v4_movies_pilot3,62b5e1d73e3c296905ba2738,56,0,-1,-1,"Fantasy World,Science Fiction,Violent,Funny,Suspense,Art,Drama,Romantic,Action","49,3,16,17,20,3,69,41,12","76,99,76,43,46,31,34,10,91",1,,12061,2022-06-24 18:13:55,153558
6100642b95c4e149c6e44c38,ma_choice_v4_movies_pilot3,6100642b95c4e149c6e44c38,46,0,-1,-1,"Violent,Action,Science Fiction,Fantasy World,Art,Suspense,Romantic,Drama,Funny","66,77,64,50,36,46,10,31,28","1,7,19,29,72,17,59,71,4",0,,9474,2022-06-24 18:13:58,153559
5f5f039252a9217cad40cc18,ma_choice_v4_movies_pilot3,5f5f039252a9217cad40cc18,73,0,-1,-1,"Violent,Science Fiction,Art,Drama,Romantic,Funny,Fantasy World,Action,Suspense","5,101,33,28,88,47,43,78,68","27,32,105,51,23,8,66,4,20",0,,8630,2022-06-24 18:14:01,153560
6100642b95c4e149c6e44c38,ma_choice_v4_movies_pilot3,6100642b95c4e149c6e44c38,47,0,-1,-1,"Violent,Drama,Fantasy World,Romantic,Science Fiction,Art,Suspense,Action,Funny","40,65,15,0,5,89,40,2,0","4,9,46,89,29,18,8,23,66",0,,8284,2022-06-24 18:14:07,153561
5f5f039252a9217cad40cc18,ma_choice_v4_movies_pilot3,5f5f039252a9217cad40cc18,74,0,-1,-1,"Romantic,Violent,Science Fiction,Fantasy World,Art,Action,Funny,Drama,Suspense","7,68,63,41,80,32,2,75,76","63,1,38,68,9,8,22,18,1",0,,7925,2022-06-24 18:14:10,153562
62b5e1d73e3c296905ba2738,ma_choice_v4_movies_pilot3,62b5e1d73e3c296905ba2738,57,0,-1,-1,"Violent,Suspense,Science Fiction,Funny,Drama,Art,Action,Romantic,Fantasy World","13,42,45,55,16,3,44,45,34","34,0,25,2,39,45,14,15,61",0,,23287,2022-06-24 18:14:19,153563
5f5f039252a9217cad40cc18,ma_choice_v4_movies_pilot3,5f5f039252a9217cad40cc18,75,0,-1,-1,"Suspense,Romantic,Science Fiction,Art,Action,Funny,Fantasy World,Drama,Violent","57,34,8,54,11,6,22,78,60","8,4,35,6,37,65,58,7,1",0,,11836,2022-06-24 18:14:23,153564
5f5f039252a9217cad40cc18,ma_choice_v4_movies_pilot3,5f5f039252a9217cad40cc18,76,0,-1,-1,"Science Fiction,Suspense,Drama,Funny,Action,Fantasy World,Romantic,Violent,Art","40,20,14,80,20,47,31,15,14","14,71,64,6,89,26,10,79,69",1,,7697,2022-06-24 18:14:32,153565
62b5e1d73e3c296905ba2738,ma_choice_v4_movies_pilot3,62b5e1d73e3c296905ba2738,58,0,-1,-1,"Action,Suspense,Art,Fantasy World,Violent,Funny,Science Fiction,Drama,Romantic","92,55,10,65,12,52,7,15,25","5,21,62,40,75,1,32,55,2",0,,17342,2022-06-24 18:14:37,153566
6100642b95c4e149c6e44c38,ma_choice_v4_movies_pilot3,6100642b95c4e149c6e44c38,48,0,-1,-1,"Suspense,Art,Funny,Violent,Fantasy World,Action,Science Fiction,Romantic,Drama","11,15,37,1,53,56,88,37,4","48,54,2,33,32,8,22,3,63",0,,31175,2022-06-24 18:14:39,153567
5f5f039252a9217cad40cc18,ma_choice_v4_movies_pilot3,5f5f039252a9217cad40cc18,77,0,-1,-1,"Action,Drama,Fantasy World,Suspense,Funny,Art,Romantic,Violent,Science Fiction","48,68,46,89,10,90,63,6,70","14,14,74,1,76,16,7,65,33",0,,7793,2022-06-24 18:14:40,153568
5f5f039252a9217cad40cc18,ma_choice_v4_movies_pilot3,5f5f039252a9217cad40cc18,78,0,-1,-1,"Funny,Science Fiction,Drama,Romantic,Art,Violent,Fantasy World,Action,Suspense","72,52,47,25,80,47,32,90,64","29,25,4,2,4,1,54,5,1",0,,7978,2022-06-24 18:14:49,153569
6100642b95c4e149c6e44c38,ma_choice_v4_movies_pilot3,6100642b95c4e149c6e44c38,49,0,-1,-1,"Drama,Funny,Art,Suspense,Science Fiction,Violent,Romantic,Action,Fantasy World","28,66,22,33,46,13,52,23,58","56,1,94,0,1,34,2,2,29",0,,9258,2022-06-24 18:14:50,153570
5f5f039252a9217cad40cc18,ma_choice_v4_movies_pilot3,5f5f039252a9217cad40cc18,79,0,-1,-1,"Funny,Romantic,Drama,Fantasy World,Science Fiction,Action,Suspense,Art,Violent","52,25,15,65,7,92,55,10,12","1,2,55,40,32,5,21,62,75",1,,7961,2022-06-24 18:14:58,153571
6100642b95c4e149c6e44c38,ma_choice_v4_movies_pilot3,6100642b95c4e149c6e44c38,50,0,-1,-1,"Romantic,Funny,Violent,Action,Science Fiction,Art,Suspense,Fantasy World,Drama","15,62,3,56,57,2,12,65,9","52,3,100,23,27,28,49,42,74",0,,10658,2022-06-24 18:15:01,153572
62b5e1d73e3c296905ba2738,ma_choice_v4_movies_pilot3,62b5e1d73e3c296905ba2738,59,0,-1,-1,"Violent,Romantic,Funny,Drama,Art,Science Fiction,Suspense,Action,Fantasy World","14,0,49,77,70,25,14,3,63","44,20,11,19,9,89,77,35,41",0,,24589,2022-06-24 18:15:03,153573
5f5f039252a9217cad40cc18,ma_choice_v4_movies_pilot3,5f5f039252a9217cad40cc18,80,0,-1,-1,"Fantasy World,Funny,Violent,Science Fiction,Romantic,Action,Art,Drama,Suspense","60,45,14,29,86,71,16,14,19","34,6,68,1,14,13,65,62,80",1,,11496,2022-06-24 18:15:11,153574
6100642b95c4e149c6e44c38,ma_choice_v4_movies_pilot3,6100642b95c4e149c6e44c38,51,0,-1,-1,"Action,Suspense,Fantasy World,Drama,Funny,Violent,Science Fiction,Art,Romantic","6,2,59,77,2,73,34,27,48","30,48,39,47,30,9,7,79,3",1,,11224,2022-06-24 18:15:13,153575
5f5f039252a9217cad40cc18,ma_choice_v4_movies_pilot3,5f5f039252a9217cad40cc18,81,0,-1,-1,"Romantic,Art,Science Fiction,Action,Violent,Drama,Suspense,Funny,Fantasy World","15,2,57,56,3,9,12,62,65","52,28,27,23,100,74,49,3,42",0,,13355,2022-06-24 18:15:25,153576
62b5e1d73e3c296905ba2738,ma_choice_v4_movies_pilot3,62b5e1d73e3c296905ba2738,60,0,-1,-1,"Romantic,Violent,Action,Art,Suspense,Drama,Science Fiction,Fantasy World,Funny","5,21,7,38,31,22,50,55,44","33,1,59,3,2,63,18,12,7",0,,24135,2022-06-24 18:15:28,153577
6100642b95c4e149c6e44c38,ma_choice_v4_movies_pilot3,6100642b95c4e149c6e44c38,52,0,-1,-1,"Science Fiction,Funny,Action,Romantic,Violent,Drama,Suspense,Art,Fantasy World","4,1,8,3,74,42,6,79,34","46,23,71,24,15,12,78,19,79",0,,14977,2022-06-24 18:15:29,153578
5f5f039252a9217cad40cc18,ma_choice_v4_movies_pilot3,5f5f039252a9217cad40cc18,82,0,-1,-1,"Drama,Fantasy World,Funny,Suspense,Action,Science Fiction,Romantic,Violent,Art","16,34,55,42,44,45,45,13,3","39,61,2,0,14,25,15,34,45",0,,7863,2022-06-24 18:15:34,153579
62b5e1d73e3c296905ba2738,ma_choice_v4_movies_pilot3,62b5e1d73e3c296905ba2738,61,0,-1,-1,"Drama,Romantic,Science Fiction,Action,Funny,Violent,Suspense,Fantasy World,Art","74,26,15,3,1,1,53,31,65","10,0,86,57,75,21,9,80,8",1,,12895,2022-06-24 18:15:42,153580
5f5f039252a9217cad40cc18,ma_choice_v4_movies_pilot3,5f5f039252a9217cad40cc18,83,0,-1,-1,"Art,Romantic,Drama,Science Fiction,Suspense,Fantasy World,Violent,Action,Funny","12,0,6,103,4,75,5,41,12","107,21,70,32,25,45,33,15,53",1,,15546,2022-06-24 18:15:51,153581
6100642b95c4e149c6e44c38,ma_choice_v4_movies_pilot3,6100642b95c4e149c6e44c38,53,0,-1,-1,"Suspense,Violent,Fantasy World,Action,Drama,Science Fiction,Romantic,Funny,Art","45,29,36,63,73,19,9,1,2","15,1,67,21,26,45,42,51,26",1,,20486,2022-06-24 18:15:51,153582
62b5e1d73e3c296905ba2738,ma_choice_v4_movies_pilot3,62b5e1d73e3c296905ba2738,62,0,-1,-1,"Art,Action,Romantic,Suspense,Science Fiction,Fantasy World,Violent,Drama,Funny","10,2,3,0,28,49,1,41,1","76,23,44,21,1,100,27,64,21",1,,9854,2022-06-24 18:15:53,153583
5f5f039252a9217cad40cc18,ma_choice_v4_movies_pilot3,5f5f039252a9217cad40cc18,84,0,-1,-1,"Suspense,Romantic,Violent,Science Fiction,Action,Art,Fantasy World,Funny,Drama","74,3,65,79,82,8,84,5,19","2,40,1,20,19,34,48,25,73",0,,7619,2022-06-24 18:15:59,153584
62b5e1d73e3c296905ba2738,ma_choice_v4_movies_pilot3,62b5e1d73e3c296905ba2738,63,0,-1,-1,"Violent,Science Fiction,Romantic,Suspense,Drama,Art,Action,Fantasy World,Funny","20,26,55,29,20,34,4,73,8","78,83,12,78,50,8,56,50,40",1,,7633,2022-06-24 18:16:01,153585
6103907e48194088cd8e0b05,ma_choice_v4_movies_pilot3,6103907e48194088cd8e0b05,0,1,-1,-1,"Violent,Science Fiction,Action,Romantic,Funny,Fantasy World,Drama,Suspense,Art","37,48,24,41,65,46,14,31,10","1,18,3,15,5,26,51,3,99",1,,40102,2022-06-24 18:16:06,153586
5f5f039252a9217cad40cc18,ma_choice_v4_movies_pilot3,5f5f039252a9217cad40cc18,85,0,-1,-1,"Science Fiction,Drama,Suspense,Action,Fantasy World,Romantic,Funny,Art,Violent","16,69,81,14,32,1,1,64,3","47,5,1,48,53,22,32,11,32",0,,8586,2022-06-24 18:16:09,153587
62b5e1d73e3c296905ba2738,ma_choice_v4_movies_pilot3,62b5e1d73e3c296905ba2738,64,0,-1,-1,"Romantic,Suspense,Funny,Action,Fantasy World,Drama,Science Fiction,Art,Violent","0,31,24,75,54,51,100,46,22","26,6,1,19,28,72,27,-1,1",0,,8636,2022-06-24 18:16:11,153588
6100642b95c4e149c6e44c38,ma_choice_v4_movies_pilot3,6100642b95c4e149c6e44c38,54,0,-1,-1,"Funny,Drama,Suspense,Fantasy World,Romantic,Action,Science Fiction,Violent,Art","6,11,54,62,42,21,38,1,1","60,42,18,38,3,43,17,26,32",1,,19190,2022-06-24 18:16:11,153589
5f5f039252a9217cad40cc18,ma_choice_v4_movies_pilot3,5f5f039252a9217cad40cc18,86,0,-1,-1,"Art,Romantic,Funny,Science Fiction,Action,Violent,Fantasy World,Drama,Suspense","5,51,11,42,18,1,61,63,9","25,15,48,1,90,24,37,19,30",0,,7731,2022-06-24 18:16:18,153590
6103907e48194088cd8e0b05,ma_choice_v4_movies_pilot3,6103907e48194088cd8e0b05,1,1,-1,-1,"Fantasy World,Suspense,Art,Funny,Violent,Science Fiction,Romantic,Action,Drama","25,2,70,0,3,20,14,3,65","46,24,36,73,30,45,37,34,21",0,,13288,2022-06-24 18:16:20,153591
6100642b95c4e149c6e44c38,ma_choice_v4_movies_pilot3,6100642b95c4e149c6e44c38,55,0,-1,-1,"Romantic,Action,Violent,Funny,Science Fiction,Drama,Art,Fantasy World,Suspense","11,5,66,14,14,79,27,37,48","38,37,5,53,45,15,6,58,12",0,,9571,2022-06-24 18:16:22,153592
62b5e1d73e3c296905ba2738,ma_choice_v4_movies_pilot3,62b5e1d73e3c296905ba2738,65,0,-1,-1,"Art,Action,Drama,Violent,Funny,Fantasy World,Romantic,Science Fiction,Suspense","22,24,13,2,67,53,16,90,4","53,3,78,41,2,11,47,13,32",1,,11562,2022-06-24 18:16:24,153593
5f5f039252a9217cad40cc18,ma_choice_v4_movies_pilot3,5f5f039252a9217cad40cc18,87,0,-1,-1,"Fantasy World,Science Fiction,Art,Suspense,Drama,Romantic,Funny,Violent,Action","32,22,54,48,63,3,2,33,8","53,88,15,11,4,37,37,1,56",0,,7980,2022-06-24 18:16:27,153594
6100642b95c4e149c6e44c38,ma_choice_v4_movies_pilot3,6100642b95c4e149c6e44c38,56,0,-1,-1,"Science Fiction,Drama,Funny,Fantasy World,Art,Romantic,Violent,Action,Suspense","7,12,72,35,3,2,1,27,7","27,76,6,56,69,23,53,3,28",0,,7744,2022-06-24 18:16:30,153595
62b5e1d73e3c296905ba2738,ma_choice_v4_movies_pilot3,62b5e1d73e3c296905ba2738,66,0,-1,-1,"Violent,Romantic,Science Fiction,Action,Funny,Drama,Fantasy World,Art,Suspense","47,25,52,90,72,47,32,80,64","1,2,25,5,29,4,54,4,1",0,,7369,2022-06-24 18:16:32,153596
6103907e48194088cd8e0b05,ma_choice_v4_movies_pilot3,6103907e48194088cd8e0b05,2,1,-1,-1,"Suspense,Art,Fantasy World,Funny,Violent,Science Fiction,Drama,Action,Romantic","1,4,41,52,32,43,5,3,1","87,38,19,12,2,14,47,33,52",1,,12959,2022-06-24 18:16:34,153597
5f5f039252a9217cad40cc18,ma_choice_v4_movies_pilot3,5f5f039252a9217cad40cc18,88,0,-1,-1,"Romantic,Action,Fantasy World,Suspense,Drama,Funny,Violent,Science Fiction,Art","0,2,15,40,65,0,40,5,89","89,23,46,8,9,66,4,29,18",0,,8388,2022-06-24 18:16:36,153598
6103907e48194088cd8e0b05,ma_choice_v4_movies_pilot3,6103907e48194088cd8e0b05,3,1,-1,-1,"Action,Funny,Suspense,Fantasy World,Art,Science Fiction,Drama,Romantic,Violent","36,61,69,40,24,47,15,18,74","15,16,10,75,50,22,78,78,28",0,,7907,2022-06-24 18:16:43,153599
5f5f039252a9217cad40cc18,ma_choice_v4_movies_pilot3,5f5f039252a9217cad40cc18,89,0,-1,-1,"Violent,Action,Funny,Science Fiction,Art,Fantasy World,Suspense,Romantic,Drama","1,14,23,10,30,14,19,70,76","32,79,1,35,8,39,56,8,7",0,,9299,2022-06-24 18:16:46,153600
62b5e1d73e3c296905ba2738,ma_choice_v4_movies_pilot3,62b5e1d73e3c296905ba2738,67,0,-1,-1,"Art,Drama,Fantasy World,Science Fiction,Violent,Funny,Romantic,Action,Suspense","50,33,37,101,85,1,0,75,57","7,73,91,42,1,37,49,18,6",0,,14151,2022-06-24 18:16:47,153601
62b5e1d73e3c296905ba2738,ma_choice_v4_movies_pilot3,62b5e1d73e3c296905ba2738,68,0,-1,-1,"Action,Violent,Romantic,Fantasy World,Science Fiction,Art,Drama,Funny,Suspense","89,78,1,74,103,71,4,18,49","7,3,52,49,41,7,44,78,19",0,,7186,2022-06-24 18:16:55,153602
6100642b95c4e149c6e44c38,ma_choice_v4_movies_pilot3,6100642b95c4e149c6e44c38,57,0,-1,-1,"Suspense,Art,Science Fiction,Violent,Drama,Fantasy World,Action,Romantic,Funny","71,69,14,79,64,26,89,10,6","20,14,40,15,14,47,20,31,80",1,,24059,2022-06-24 18:16:56,153603
5f5f039252a9217cad40cc18,ma_choice_v4_movies_pilot3,5f5f039252a9217cad40cc18,90,0,-1,-1,"Science Fiction,Fantasy World,Violent,Funny,Action,Suspense,Romantic,Art,Drama","86,80,21,75,57,9,0,8,10","15,31,1,1,3,53,26,65,74",0,,9950,2022-06-24 18:16:57,153604
6103907e48194088cd8e0b05,ma_choice_v4_movies_pilot3,6103907e48194088cd8e0b05,4,1,-1,-1,"Suspense,Drama,Fantasy World,Action,Science Fiction,Romantic,Art,Violent,Funny","0,4,57,11,8,0,66,13,9","80,78,23,69,37,41,42,57,35",1,,17002,2022-06-24 18:17:01,153605
62b5e1d73e3c296905ba2738,ma_choice_v4_movies_pilot3,62b5e1d73e3c296905ba2738,69,0,-1,-1,"Art,Violent,Science Fiction,Romantic,Drama,Suspense,Funny,Action,Fantasy World","71,73,42,0,26,1,25,61,30","24,1,20,31,63,58,1,28,51",1,,9823,2022-06-24 18:17:06,153606
5f5f039252a9217cad40cc18,ma_choice_v4_movies_pilot3,5f5f039252a9217cad40cc18,91,0,-1,-1,"Art,Drama,Action,Romantic,Funny,Fantasy World,Violent,Suspense,Science Fiction","0,6,49,3,1,63,61,1,27","30,67,25,53,63,37,20,26,47",1,,7906,2022-06-24 18:17:06,153607
6100642b95c4e149c6e44c38,ma_choice_v4_movies_pilot3,6100642b95c4e149c6e44c38,58,0,-1,-1,"Art,Fantasy World,Drama,Romantic,Action,Suspense,Violent,Funny,Science Fiction","88,30,8,0,6,11,35,1,1","14,53,71,80,35,40,1,22,25",0,,15339,2022-06-24 18:17:12,153608
62b5e1d73e3c296905ba2738,ma_choice_v4_movies_pilot3,62b5e1d73e3c296905ba2738,70,0,-1,-1,"Violent,Art,Drama,Funny,Romantic,Suspense,Fantasy World,Science Fiction,Action","60,14,23,63,72,35,46,8,91","3,46,77,2,14,1,69,44,2",1,,11335,2022-06-24 18:17:19,153609
5f5f039252a9217cad40cc18,ma_choice_v4_movies_pilot3,5f5f039252a9217cad40cc18,92,0,-1,-1,"Romantic,Fantasy World,Drama,Suspense,Violent,Art,Science Fiction,Funny,Action","88,44,9,26,3,2,34,3,5","5,75,73,73,49,35,82,35,34",1,,11506,2022-06-24 18:17:19,153610
5f5f039252a9217cad40cc18,ma_choice_v4_movies_pilot3,5f5f039252a9217cad40cc18,93,0,-1,-1,"Funny,Action,Art,Suspense,Fantasy World,Violent,Drama,Romantic,Science Fiction","6,87,22,79,51,54,15,39,45","29,3,90,3,28,21,35,11,22",1,,9461,2022-06-24 18:17:29,153611
62b5e1d73e3c296905ba2738,ma_choice_v4_movies_pilot3,62b5e1d73e3c296905ba2738,71,0,-1,-1,"Funny,Romantic,Violent,Science Fiction,Art,Drama,Fantasy World,Action,Suspense","1,3,74,4,79,42,34,8,6","23,24,15,46,19,12,79,71,78",1,,16242,2022-06-24 18:17:36,153612
5f5f039252a9217cad40cc18,ma_choice_v4_movies_pilot3,5f5f039252a9217cad40cc18,94,0,-1,-1,"Violent,Romantic,Science Fiction,Suspense,Funny,Art,Action,Fantasy World,Drama","51,37,28,12,15,34,80,59,8","7,79,52,69,43,83,1,37,32",1,,8098,2022-06-24 18:17:38,153613
5f5f039252a9217cad40cc18,ma_choice_v4_movies_pilot3,5f5f039252a9217cad40cc18,95,0,-1,-1,"Fantasy World,Suspense,Drama,Romantic,Science Fiction,Funny,Art,Action,Violent","37,73,36,47,19,64,14,90,57","63,11,73,5,44,0,47,4,1",0,,7772,2022-06-24 18:17:47,153614
6100642b95c4e149c6e44c38,ma_choice_v4_movies_pilot3,6100642b95c4e149c6e44c38,59,0,-1,-1,"Action,Drama,Funny,Suspense,Romantic,Art,Violent,Fantasy World,Science Fiction","12,69,17,20,41,3,16,49,3","91,34,43,46,10,31,76,76,99",1,,34360,2022-06-24 18:17:47,153615
6103907e48194088cd8e0b05,ma_choice_v4_movies_pilot3,6103907e48194088cd8e0b05,5,1,-1,-1,"Romantic,Art,Science Fiction,Suspense,Action,Fantasy World,Drama,Violent,Funny","35,8,51,12,27,55,12,3,80","9,74,22,48,3,34,84,26,1",1,,50168,2022-06-24 18:17:52,153616
5f5f039252a9217cad40cc18,ma_choice_v4_movies_pilot3,5f5f039252a9217cad40cc18,96,0,-1,-1,"Funny,Science Fiction,Romantic,Suspense,Drama,Violent,Action,Fantasy World,Art","7,9,28,71,73,39,23,20,45","66,35,5,5,10,6,2,57,2",0,,8422,2022-06-24 18:17:57,153617
6100642b95c4e149c6e44c38,ma_choice_v4_movies_pilot3,6100642b95c4e149c6e44c38,60,0,-1,-1,"Suspense,Drama,Fantasy World,Art,Funny,Action,Science Fiction,Romantic,Violent","61,48,81,64,85,42,80,27,25","4,6,41,23,44,13,45,6,1",0,,8587,2022-06-24 18:17:57,153618
6103907e48194088cd8e0b05,ma_choice_v4_movies_pilot3,6103907e48194088cd8e0b05,6,1,-1,-1,"Violent,Art,Funny,Drama,Suspense,Romantic,Fantasy World,Action,Science Fiction","5,58,1,61,54,75,39,34,30","27,23,64,39,20,21,66,56,51",0,,7828,2022-06-24 18:18:01,153619
5f5f039252a9217cad40cc18,ma_choice_v4_movies_pilot3,5f5f039252a9217cad40cc18,97,0,-1,-1,"Romantic,Action,Science Fiction,Violent,Drama,Suspense,Fantasy World,Funny,Art","74,3,30,1,11,0,29,13,55","30,25,56,33,57,27,71,82,2",1,,8460,2022-06-24 18:18:06,153620
62b5e1d73e3c296905ba2738,ma_choice_v4_movies_pilot3,62b5e1d73e3c296905ba2738,72,0,-1,-1,"Fantasy World,Violent,Art,Action,Suspense,Science Fiction,Funny,Drama,Romantic","22,60,54,11,57,8,6,78,34","58,1,6,37,8,35,65,7,4",0,,32312,2022-06-24 18:18:09,153621
6103907e48194088cd8e0b05,ma_choice_v4_movies_pilot3,6103907e48194088cd8e0b05,7,1,-1,-1,"Suspense,Art,Action,Drama,Fantasy World,Violent,Science Fiction,Funny,Romantic","18,14,18,11,61,13,47,56,39","62,79,66,73,34,68,24,16,3",1,,8907,2022-06-24 18:18:11,153622
6100642b95c4e149c6e44c38,ma_choice_v4_movies_pilot3,6100642b95c4e149c6e44c38,61,0,-1,-1,"Science Fiction,Art,Violent,Action,Drama,Funny,Suspense,Romantic,Fantasy World","100,36,7,84,36,43,62,14,38","49,84,75,8,76,9,30,47,62",0,,15105,2022-06-24 18:18:13,153623
5f5f039252a9217cad40cc18,ma_choice_v4_movies_pilot3,5f5f039252a9217cad40cc18,98,0,-1,-1,"Action,Violent,Suspense,Science Fiction,Drama,Fantasy World,Funny,Romantic,Art","57,38,49,13,68,60,33,32,15","84,16,73,41,23,24,7,70,84",1,,7763,2022-06-24 18:18:15,153624
6100642b95c4e149c6e44c38,ma_choice_v4_movies_pilot3,6100642b95c4e149c6e44c38,62,0,-1,-1,"Violent,Fantasy World,Art,Action,Romantic,Funny,Drama,Suspense,Science Fiction","20,73,34,4,55,8,20,29,26","78,50,8,56,12,40,50,78,83",1,,7691,2022-06-24 18:18:22,153625
62b5e1d73e3c296905ba2738,ma_choice_v4_movies_pilot3,62b5e1d73e3c296905ba2738,73,0,-1,-1,"Violent,Funny,Drama,Suspense,Fantasy World,Science Fiction,Romantic,Action,Art","3,62,9,12,65,57,15,56,2","100,3,74,49,42,27,52,23,28",1,,12175,2022-06-24 18:18:22,153626
5f5f039252a9217cad40cc18,ma_choice_v4_movies_pilot3,5f5f039252a9217cad40cc18,99,0,-1,-1,"Action,Funny,Violent,Fantasy World,Science Fiction,Drama,Romantic,Art,Suspense","35,5,52,39,50,72,51,18,54","3,35,4,60,28,17,0,85,1",1,,7660,2022-06-24 18:18:23,153627
6100642b95c4e149c6e44c38,ma_choice_v4_movies_pilot3,6100642b95c4e149c6e44c38,63,0,-1,-1,"Fantasy World,Violent,Science Fiction,Action,Suspense,Funny,Art,Romantic,Drama","51,54,45,87,79,6,22,39,15","28,21,22,3,3,29,90,11,35",0,,13655,2022-06-24 18:18:36,153628
62b5e1d73e3c296905ba2738,ma_choice_v4_movies_pilot3,62b5e1d73e3c296905ba2738,74,0,-1,-1,"Romantic,Fantasy World,Action,Science Fiction,Drama,Violent,Suspense,Art,Funny","36,67,35,36,22,1,5,20,20","13,35,5,0,72,69,53,91,0",1,,23129,2022-06-24 18:18:46,153629
6100642b95c4e149c6e44c38,ma_choice_v4_movies_pilot3,6100642b95c4e149c6e44c38,64,0,-1,-1,"Science Fiction,Drama,Violent,Funny,Romantic,Art,Action,Fantasy World,Suspense","0,91,62,2,17,81,11,12,65","32,3,1,82,42,20,90,37,8",1,,14275,2022-06-24 18:18:52,153630
6103907e48194088cd8e0b05,ma_choice_v4_movies_pilot3,6103907e48194088cd8e0b05,8,1,-1,-1,"Romantic,Art,Funny,Violent,Drama,Science Fiction,Action,Fantasy World,Suspense","0,65,1,39,80,17,6,34,19","25,13,30,3,22,87,79,65,90",1,,57085,2022-06-24 18:19:09,153631
6100642b95c4e149c6e44c38,ma_choice_v4_movies_pilot3,6100642b95c4e149c6e44c38,65,0,-1,-1,"Funny,Fantasy World,Suspense,Art,Violent,Action,Romantic,Drama,Science Fiction","1,49,0,10,1,2,3,41,28","21,100,21,76,27,23,44,64,1",1,,17793,2022-06-24 18:19:10,153632
62b5e1d73e3c296905ba2738,ma_choice_v4_movies_pilot3,62b5e1d73e3c296905ba2738,75,0,-1,-1,"Science Fiction,Funny,Art,Violent,Drama,Fantasy World,Romantic,Action,Suspense","4,33,33,1,22,68,73,7,5","30,1,2,26,79,31,47,31,84",1,,22931,2022-06-24 18:19:10,153633
6103907e48194088cd8e0b05,ma_choice_v4_movies_pilot3,6103907e48194088cd8e0b05,9,1,-1,-1,"Romantic,Fantasy World,Action,Funny,Art,Science Fiction,Suspense,Drama,Violent","100,31,20,3,11,15,2,21,1","21,54,83,47,69,47,78,61,78",1,,8073,2022-06-24 18:19:18,153634
62b5e1d73e3c296905ba2738,ma_choice_v4_movies_pilot3,62b5e1d73e3c296905ba2738,76,0,-1,-1,"Science Fiction,Action,Art,Violent,Fantasy World,Romantic,Funny,Suspense,Drama","41,84,84,16,24,70,7,73,23","13,57,15,38,60,32,33,49,68",0,,7387,2022-06-24 18:19:19,153635
62b5e1d73e3c296905ba2738,ma_choice_v4_movies_pilot3,62b5e1d73e3c296905ba2738,77,0,-1,-1,"Funny,Suspense,Romantic,Art,Science Fiction,Violent,Action,Fantasy World,Drama","28,54,77,7,36,30,44,39,58","8,0,9,79,11,2,5,93,10",0,,19398,2022-06-24 18:19:39,153636
6100642b95c4e149c6e44c38,ma_choice_v4_movies_pilot3,6100642b95c4e149c6e44c38,66,0,-1,-1,"Romantic,Suspense,Science Fiction,Art,Drama,Action,Violent,Funny,Fantasy World","20,77,89,9,19,35,44,11,41","0,14,25,70,77,3,14,49,63",0,,35342,2022-06-24 18:19:47,153637
62b5e1d73e3c296905ba2738,ma_choice_v4_movies_pilot3,62b5e1d73e3c296905ba2738,78,0,-1,-1,"Drama,Science Fiction,Funny,Action,Art,Fantasy World,Suspense,Violent,Romantic","17,17,1,30,13,65,75,47,5","76,63,24,7,72,29,45,12,37",1,,14489,2022-06-24 18:19:55,153638
6103907e48194088cd8e0b05,ma_choice_v4_movies_pilot3,6103907e48194088cd8e0b05,0,0,-1,-1,"Funny,Art,Suspense,Fantasy World,Science Fiction,Violent,Action,Romantic,Drama","3,82,12,40,1,55,11,5,19","32,6,50,18,41,6,41,60,73",0,,17356,2022-06-24 18:19:56,153639
6100642b95c4e149c6e44c38,ma_choice_v4_movies_pilot3,6100642b95c4e149c6e44c38,67,0,-1,-1,"Drama,Fantasy World,Art,Funny,Action,Suspense,Science Fiction,Violent,Romantic","18,68,9,22,8,1,38,1,63","75,41,80,2,32,76,63,68,7",1,,16824,2022-06-24 18:20:05,153640
62b5e1d73e3c296905ba2738,ma_choice_v4_movies_pilot3,62b5e1d73e3c296905ba2738,79,0,-1,-1,"Funny,Fantasy World,Science Fiction,Art,Romantic,Suspense,Action,Violent,Drama","1,29,1,94,2,0,2,34,56","66,58,46,22,52,33,23,13,28",1,,11414,2022-06-24 18:20:07,153641
6100642b95c4e149c6e44c38,ma_choice_v4_movies_pilot3,6100642b95c4e149c6e44c38,68,0,-1,-1,"Action,Violent,Science Fiction,Funny,Suspense,Drama,Fantasy World,Art,Romantic","10,13,30,69,4,7,46,31,83","55,83,60,1,57,79,69,11,5",1,,7790,2022-06-24 18:20:13,153642
62b5e1d73e3c296905ba2738,ma_choice_v4_movies_pilot3,62b5e1d73e3c296905ba2738,80,0,-1,-1,"Art,Drama,Science Fiction,Fantasy World,Suspense,Violent,Funny,Action,Romantic","41,72,38,49,79,73,13,59,56","7,10,3,15,6,8,81,7,19",0,,7508,2022-06-24 18:20:16,153643
62b5e1d73e3c296905ba2738,ma_choice_v4_movies_pilot3,62b5e1d73e3c296905ba2738,81,0,-1,-1,"Fantasy World,Violent,Drama,Funny,Suspense,Action,Romantic,Art,Science Fiction","51,54,15,6,79,87,39,22,45","28,21,35,29,3,3,11,90,22",0,,8473,2022-06-24 18:20:25,153644
6100642b95c4e149c6e44c38,ma_choice_v4_movies_pilot3,6100642b95c4e149c6e44c38,69,0,-1,-1,"Art,Romantic,Drama,Fantasy World,Funny,Science Fiction,Action,Suspense,Violent","17,0,52,23,26,71,5,61,1","42,20,31,67,3,0,40,9,97",1,,17857,2022-06-24 18:20:32,153645
62b5e1d73e3c296905ba2738,ma_choice_v4_movies_pilot3,62b5e1d73e3c296905ba2738,82,0,-1,-1,"Action,Drama,Science Fiction,Suspense,Violent,Fantasy World,Romantic,Art,Funny","74,62,29,21,1,25,43,36,48","22,13,58,57,79,79,13,57,4",0,,8458,2022-06-24 18:20:35,153646
62b5e1d73e3c296905ba2738,ma_choice_v4_movies_pilot3,62b5e1d73e3c296905ba2738,83,0,-1,-1,"Fantasy World,Art,Drama,Funny,Science Fiction,Violent,Romantic,Action,Suspense","23,17,52,26,71,1,0,5,61","67,42,31,3,0,97,20,40,9",0,,8130,2022-06-24 18:20:44,153647
6103907e48194088cd8e0b05,ma_choice_v4_movies_pilot3,6103907e48194088cd8e0b05,1,0,-1,-1,"Funny,Drama,Action,Suspense,Violent,Science Fiction,Romantic,Fantasy World,Art","1,79,31,84,26,30,47,31,2","33,22,7,5,1,4,73,68,33",0,,53251,2022-06-24 18:20:50,153648
6100642b95c4e149c6e44c38,ma_choice_v4_movies_pilot3,6100642b95c4e149c6e44c38,70,0,-1,-1,"Funny,Suspense,Science Fiction,Art,Drama,Fantasy World,Romantic,Action,Violent","44,31,50,38,22,55,5,7,21","7,2,18,3,63,12,33,59,1",0,,18006,2022-06-24 18:20:51,153649
62b5e1d73e3c296905ba2738,ma_choice_v4_movies_pilot3,62b5e1d73e3c296905ba2738,84,0,-1,-1,"Romantic,Science Fiction,Funny,Art,Violent,Fantasy World,Drama,Suspense,Action","23,32,8,105,27,66,51,20,4","88,101,47,33,5,43,28,68,78",0,,9275,2022-06-24 18:20:54,153650
6100642b95c4e149c6e44c38,ma_choice_v4_movies_pilot3,6100642b95c4e149c6e44c38,71,0,-1,-1,"Funny,Drama,Fantasy World,Art,Action,Science Fiction,Violent,Romantic,Suspense","9,5,75,15,28,41,2,9,2","60,73,46,60,2,19,30,74,26",1,,7739,2022-06-24 18:21:00,153651
6103907e48194088cd8e0b05,ma_choice_v4_movies_pilot3,6103907e48194088cd8e0b05,2,0,-1,-1,"Science Fiction,Fantasy World,Funny,Romantic,Violent,Art,Drama,Action,Suspense","19,37,64,47,57,14,36,90,73","44,63,0,5,1,47,73,4,11",1,,11010,2022-06-24 18:21:02,153652
62b5e1d73e3c296905ba2738,ma_choice_v4_movies_pilot3,62b5e1d73e3c296905ba2738,85,0,-1,-1,"Art,Drama,Fantasy World,Violent,Romantic,Suspense,Action,Science Fiction,Funny","9,7,45,16,72,30,39,36,63","33,44,24,76,22,77,12,100,2",1,,7376,2022-06-24 18:21:02,153653
6100642b95c4e149c6e44c38,ma_choice_v4_movies_pilot3,6100642b95c4e149c6e44c38,72,0,-1,-1,"Suspense,Fantasy World,Science Fiction,Violent,Art,Drama,Funny,Action,Romantic","11,16,2,23,12,16,83,5,37","69,59,30,88,38,82,5,26,5",0,,7626,2022-06-24 18:21:09,153654
6103907e48194088cd8e0b05,ma_choice_v4_movies_pilot3,6103907e48194088cd8e0b05,3,0,-1,-1,"Fantasy World,Funny,Art,Drama,Violent,Romantic,Suspense,Science Fiction,Action","46,10,90,68,6,63,89,70,48","74,76,16,14,65,7,1,33,14",0,,8124,2022-06-24 18:21:11,153655
62b5e1d73e3c296905ba2738,ma_choice_v4_movies_pilot3,62b5e1d73e3c296905ba2738,86,0,-1,-1,"Science Fiction,Romantic,Drama,Fantasy World,Funny,Action,Art,Suspense,Violent","28,0,17,60,35,3,85,1,4","50,51,72,39,5,35,18,54,52",1,,7874,2022-06-24 18:21:11,153656
6103907e48194088cd8e0b05,ma_choice_v4_movies_pilot3,6103907e48194088cd8e0b05,4,0,-1,-1,"Fantasy World,Drama,Suspense,Science Fiction,Funny,Art,Romantic,Action,Violent","31,20,43,3,4,-1,3,84,45","55,40,10,40,66,22,65,17,1",1,,7521,2022-06-24 18:21:20,153657
62b5e1d73e3c296905ba2738,ma_choice_v4_movies_pilot3,62b5e1d73e3c296905ba2738,87,0,-1,-1,"Art,Fantasy World,Romantic,Action,Suspense,Funny,Drama,Violent,Science Fiction","15,53,37,56,11,37,4,1,88","54,32,3,8,48,2,63,33,22",1,,10049,2022-06-24 18:21:22,153658
6100642b95c4e149c6e44c38,ma_choice_v4_movies_pilot3,6100642b95c4e149c6e44c38,73,0,-1,-1,"Drama,Suspense,Art,Funny,Science Fiction,Violent,Fantasy World,Romantic,Action","77,1,46,2,44,3,69,14,2","23,35,14,63,8,60,46,72,91",0,,17724,2022-06-24 18:21:27,153659
6103907e48194088cd8e0b05,ma_choice_v4_movies_pilot3,6103907e48194088cd8e0b05,5,0,-1,-1,"Violent,Art,Suspense,Drama,Romantic,Funny,Action,Science Fiction,Fantasy World","2,22,4,13,16,67,24,90,53","41,53,32,78,47,2,3,13,11",0,,8939,2022-06-24 18:21:30,153660
62b5e1d73e3c296905ba2738,ma_choice_v4_movies_pilot3,62b5e1d73e3c296905ba2738,88,0,-1,-1,"Suspense,Fantasy World,Art,Violent,Drama,Funny,Action,Science Fiction,Romantic","39,76,33,46,11,57,87,58,4","11,51,0,1,74,21,7,26,44",1,,7938,2022-06-24 18:21:31,153661
6103907e48194088cd8e0b05,ma_choice_v4_movies_pilot3,6103907e48194088cd8e0b05,6,0,-1,-1,"Violent,Romantic,Funny,Fantasy World,Action,Suspense,Art,Science Fiction,Drama","1,2,29,54,5,1,4,25,4","47,25,72,32,90,64,80,52,47",1,,7654,2022-06-24 18:21:38,153662
62b5e1d73e3c296905ba2738,ma_choice_v4_movies_pilot3,62b5e1d73e3c296905ba2738,89,0,-1,-1,"Violent,Art,Suspense,Science Fiction,Action,Drama,Romantic,Funny,Fantasy World","35,13,11,73,33,22,43,41,76","12,61,42,8,10,64,15,5,23",1,,7709,2022-06-24 18:21:40,153663
6100642b95c4e149c6e44c38,ma_choice_v4_movies_pilot3,6100642b95c4e149c6e44c38,74,0,-1,-1,"Violent,Drama,Romantic,Fantasy World,Art,Science Fiction,Funny,Action,Suspense","38,68,32,60,15,13,33,57,49","16,23,70,24,84,41,7,84,73",1,,12877,2022-06-24 18:21:41,153664
62b5e1d73e3c296905ba2738,ma_choice_v4_movies_pilot3,62b5e1d73e3c296905ba2738,90,0,-1,-1,"Suspense,Action,Art,Drama,Fantasy World,Science Fiction,Violent,Funny,Romantic","2,28,15,5,75,41,2,9,9","26,2,60,73,46,19,30,60,74",1,,7616,2022-06-24 18:21:49,153665
6100642b95c4e149c6e44c38,ma_choice_v4_movies_pilot3,6100642b95c4e149c6e44c38,75,0,-1,-1,"Drama,Art,Romantic,Suspense,Science Fiction,Funny,Fantasy World,Action,Violent","78,54,34,57,8,6,22,11,60","7,6,4,8,35,65,58,37,1",1,,9058,2022-06-24 18:21:51,153666
6100642b95c4e149c6e44c38,ma_choice_v4_movies_pilot3,6100642b95c4e149c6e44c38,76,0,-1,-1,"Romantic,Art,Suspense,Science Fiction,Action,Fantasy World,Violent,Funny,Drama","15,25,30,1,90,37,24,48,19","51,5,9,42,18,61,1,11,63",0,,7523,2022-06-24 18:22:00,153667
62b5e1d73e3c296905ba2738,ma_choice_v4_movies_pilot3,62b5e1d73e3c296905ba2738,91,0,-1,-1,"Action,Romantic,Violent,Drama,Science Fiction,Fantasy World,Suspense,Funny,Art","5,11,66,79,14,37,48,14,27","37,38,5,15,45,58,12,53,6",0,,13868,2022-06-24 18:22:04,153668
6100642b95c4e149c6e44c38,ma_choice_v4_movies_pilot3,6100642b95c4e149c6e44c38,77,0,-1,-1,"Science Fiction,Funny,Art,Fantasy World,Suspense,Action,Drama,Romantic,Violent","18,0,80,41,2,5,20,47,26","58,52,27,62,69,75,86,25,4",1,,7893,2022-06-24 18:22:09,153669
62b5e1d73e3c296905ba2738,ma_choice_v4_movies_pilot3,62b5e1d73e3c296905ba2738,92,0,-1,-1,"Fantasy World,Funny,Suspense,Violent,Science Fiction,Drama,Romantic,Art,Action","83,66,9,13,14,11,78,15,19","46,14,73,87,70,79,15,49,62",1,,7371,2022-06-24 18:22:12,153670
6100642b95c4e149c6e44c38,ma_choice_v4_movies_pilot3,6100642b95c4e149c6e44c38,78,0,-1,-1,"Violent,Science Fiction,Romantic,Fantasy World,Funny,Suspense,Action,Drama,Art","29,0,76,24,60,55,18,85,71","1,25,24,45,5,13,60,9,44",0,,7505,2022-06-24 18:22:17,153671
62b5e1d73e3c296905ba2738,ma_choice_v4_movies_pilot3,62b5e1d73e3c296905ba2738,93,0,-1,-1,"Romantic,Art,Science Fiction,Violent,Suspense,Action,Fantasy World,Funny,Drama","0,55,100,70,83,36,74,7,72","87,6,24,1,14,12,33,67,42",0,,7536,2022-06-24 18:22:21,153672
6100642b95c4e149c6e44c38,ma_choice_v4_movies_pilot3,6100642b95c4e149c6e44c38,79,0,-1,-1,"Action,Suspense,Art,Funny,Drama,Violent,Science Fiction,Romantic,Fantasy World","35,5,20,20,22,1,36,36,67","5,53,91,0,72,69,0,13,35",1,,7506,2022-06-24 18:22:26,153673
62b5e1d73e3c296905ba2738,ma_choice_v4_movies_pilot3,62b5e1d73e3c296905ba2738,94,0,-1,-1,"Drama,Funny,Science Fiction,Fantasy World,Art,Romantic,Violent,Action,Suspense","76,6,27,56,69,23,53,3,28","12,72,7,35,3,2,1,27,7",0,,8966,2022-06-24 18:22:30,153674
6100642b95c4e149c6e44c38,ma_choice_v4_movies_pilot3,6100642b95c4e149c6e44c38,80,0,-1,-1,"Romantic,Funny,Drama,Science Fiction,Action,Fantasy World,Violent,Suspense,Art","21,71,31,76,91,88,22,16,16","1,1,3,14,14,38,43,64,39",0,,8724,2022-06-24 18:22:36,153675
62b5e1d73e3c296905ba2738,ma_choice_v4_movies_pilot3,62b5e1d73e3c296905ba2738,95,0,-1,-1,"Drama,Violent,Suspense,Funny,Action,Fantasy World,Science Fiction,Romantic,Art","19,24,30,48,90,37,1,15,25","63,1,9,11,18,61,42,51,5",1,,15656,2022-06-24 18:22:47,153676
6100642b95c4e149c6e44c38,ma_choice_v4_movies_pilot3,6100642b95c4e149c6e44c38,81,0,-1,-1,"Funny,Science Fiction,Action,Romantic,Violent,Drama,Art,Fantasy World,Suspense","4,58,22,13,79,13,57,79,57","48,29,74,43,1,62,36,25,21",0,,15970,2022-06-24 18:22:53,153677
6100642b95c4e149c6e44c38,ma_choice_v4_movies_pilot3,6100642b95c4e149c6e44c38,82,0,-1,-1,"Suspense,Fantasy World,Art,Romantic,Funny,Action,Drama,Violent,Science Fiction","3,35,43,5,24,3,30,1,15","89,66,23,37,4,73,75,49,36",1,,7454,2022-06-24 18:23:01,153678
62b5e1d73e3c296905ba2738,ma_choice_v4_movies_pilot3,62b5e1d73e3c296905ba2738,96,0,-1,-1,"Drama,Fantasy World,Suspense,Romantic,Art,Action,Funny,Violent,Science Fiction","36,38,62,14,36,84,43,7,100","76,62,30,47,84,8,9,75,49",1,,15978,2022-06-24 18:23:04,153679
6100642b95c4e149c6e44c38,ma_choice_v4_movies_pilot3,6100642b95c4e149c6e44c38,83,0,-1,-1,"Violent,Suspense,Romantic,Action,Funny,Science Fiction,Fantasy World,Drama,Art","71,32,1,15,1,17,39,70,38","15,10,37,78,52,45,66,29,4",1,,7804,2022-06-24 18:23:10,153680
62b5e1d73e3c296905ba2738,ma_choice_v4_movies_pilot3,62b5e1d73e3c296905ba2738,97,0,-1,-1,"Science Fiction,Art,Violent,Funny,Romantic,Suspense,Drama,Action,Fantasy World","64,36,66,28,10,46,31,77,50","19,72,1,4,59,17,71,7,29",0,,7615,2022-06-24 18:23:13,153681
6103907e48194088cd8e0b05,ma_choice_v4_movies_pilot3,6103907e48194088cd8e0b05,7,0,-1,-1,"Suspense,Art,Action,Funny,Romantic,Drama,Fantasy World,Science Fiction,Violent","8,2,55,38,87,21,78,5,2","76,79,3,0,17,79,45,26,50",1,,99705,2022-06-24 18:23:19,153682
62b5e1d73e3c296905ba2738,ma_choice_v4_movies_pilot3,62b5e1d73e3c296905ba2738,98,0,-1,-1,"Art,Drama,Science Fiction,Action,Suspense,Romantic,Funny,Violent,Fantasy World","16,14,33,14,1,7,76,65,74","90,68,70,48,89,63,10,6,46",1,,7330,2022-06-24 18:23:21,153683
6100642b95c4e149c6e44c38,ma_choice_v4_movies_pilot3,6100642b95c4e149c6e44c38,84,0,-1,-1,"Violent,Fantasy World,Action,Art,Romantic,Funny,Drama,Suspense,Science Fiction","75,63,9,95,7,1,5,35,40","4,42,51,10,39,75,65,11,72",0,,16476,2022-06-24 18:23:27,153684
62b5e1d73e3c296905ba2738,ma_choice_v4_movies_pilot3,62b5e1d73e3c296905ba2738,99,0,-1,-1,"Art,Action,Suspense,Funny,Romantic,Science Fiction,Violent,Drama,Fantasy World","0,33,2,23,4,22,54,44,49","62,9,78,0,27,2,10,15,23",0,,7781,2022-06-24 18:23:30,153685
6100642b95c4e149c6e44c38,ma_choice_v4_movies_pilot3,6100642b95c4e149c6e44c38,85,0,-1,-1,"Romantic,Suspense,Action,Science Fiction,Funny,Violent,Art,Fantasy World,Drama","40,21,74,14,9,29,5,92,7","95,45,11,39,70,4,37,40,48",1,,7889,2022-06-24 18:23:36,153686
6103907e48194088cd8e0b05,ma_choice_v4_movies_pilot3,6103907e48194088cd8e0b05,8,0,-1,-1,"Suspense,Funny,Action,Art,Science Fiction,Fantasy World,Violent,Drama,Romantic","21,48,74,36,29,25,1,62,43","57,4,22,57,58,79,79,13,13",1,,17049,2022-06-24 18:23:37,153687
6103907e48194088cd8e0b05,ma_choice_v4_movies_pilot3,6103907e48194088cd8e0b05,9,0,-1,-1,"Romantic,Science Fiction,Violent,Fantasy World,Art,Action,Suspense,Funny,Drama","11,10,36,34,61,81,70,1,26","70,33,1,56,7,22,2,58,5",0,,8412,2022-06-24 18:23:47,153688
6100642b95c4e149c6e44c38,ma_choice_v4_movies_pilot3,6100642b95c4e149c6e44c38,86,0,-1,-1,"Science Fiction,Drama,Fantasy World,Action,Violent,Romantic,Art,Funny,Suspense","73,22,76,33,35,43,13,41,11","8,64,23,10,12,15,61,5,42",0,,9725,2022-06-24 18:23:47,153689
6100642b95c4e149c6e44c38,ma_choice_v4_movies_pilot3,6100642b95c4e149c6e44c38,87,0,-1,-1,"Science Fiction,Suspense,Fantasy World,Violent,Action,Drama,Funny,Romantic,Art","103,49,74,78,89,4,18,1,71","41,19,49,3,7,44,78,52,7",0,,7405,2022-06-24 18:23:55,153690
5d3b9f531850400001d2bac9,ma_choice_v4_movies_pilot3,5d3b9f531850400001d2bac9,0,1,-1,-1,"Drama,Suspense,Science Fiction,Action,Violent,Funny,Art,Romantic,Fantasy World","39,20,51,56,27,64,23,21,66","61,54,30,34,5,1,58,75,39",1,,25118,2022-06-24 18:23:59,153691
6103907e48194088cd8e0b05,ma_choice_v4_movies_pilot3,6103907e48194088cd8e0b05,10,0,-1,-1,"Fantasy World,Art,Violent,Science Fiction,Drama,Suspense,Funny,Romantic,Action","69,9,1,30,42,1,11,46,5","44,75,75,51,6,35,47,0,81",1,,15924,2022-06-24 18:24:04,153692
6100642b95c4e149c6e44c38,ma_choice_v4_movies_pilot3,6100642b95c4e149c6e44c38,88,0,-1,-1,"Funny,Suspense,Drama,Violent,Romantic,Science Fiction,Fantasy World,Art,Action","66,5,10,6,5,35,57,2,2","7,71,73,39,28,9,20,45,23",0,,8074,2022-06-24 18:24:04,153693
6103907e48194088cd8e0b05,ma_choice_v4_movies_pilot3,6103907e48194088cd8e0b05,11,0,-1,-1,"Art,Violent,Suspense,Fantasy World,Funny,Science Fiction,Romantic,Action,Drama","69,26,61,76,88,42,5,9,58","18,2,82,40,7,21,31,45,27",0,,8454,2022-06-24 18:24:13,153694
6100642b95c4e149c6e44c38,ma_choice_v4_movies_pilot3,6100642b95c4e149c6e44c38,89,0,-1,-1,"Romantic,Violent,Drama,Science Fiction,Art,Action,Suspense,Fantasy World,Funny","26,1,74,15,65,3,53,31,1","0,21,10,86,8,57,9,80,75",1,,8223,2022-06-24 18:24:14,153695
5d3b9f531850400001d2bac9,ma_choice_v4_movies_pilot3,5d3b9f531850400001d2bac9,1,1,-1,-1,"Fantasy World,Art,Violent,Funny,Suspense,Science Fiction,Action,Drama,Romantic","65,13,3,30,90,87,79,22,25","34,65,39,1,19,17,6,80,0",0,,16746,2022-06-24 18:24:17,153696
6100642b95c4e149c6e44c38,ma_choice_v4_movies_pilot3,6100642b95c4e149c6e44c38,90,0,-1,-1,"Violent,Fantasy World,Suspense,Funny,Art,Science Fiction,Romantic,Drama,Action","75,40,21,1,62,32,2,55,5","12,65,55,52,10,7,25,15,92",0,,11290,2022-06-24 18:24:26,153697
5d3b9f531850400001d2bac9,ma_choice_v4_movies_pilot3,5d3b9f531850400001d2bac9,2,1,-1,-1,"Action,Violent,Fantasy World,Funny,Suspense,Drama,Romantic,Science Fiction,Art","83,78,54,47,78,61,21,47,69","20,1,31,3,2,21,100,15,11",0,,8899,2022-06-24 18:24:27,153698
6100642b95c4e149c6e44c38,ma_choice_v4_movies_pilot3,6100642b95c4e149c6e44c38,91,0,-1,-1,"Romantic,Fantasy World,Violent,Art,Drama,Funny,Suspense,Action,Science Fiction","5,76,26,69,58,88,61,9,42","31,40,2,18,27,7,82,45,21",0,,7640,2022-06-24 18:24:35,153699
6103907e48194088cd8e0b05,ma_choice_v4_movies_pilot3,6103907e48194088cd8e0b05,12,0,-1,-1,"Romantic,Funny,Fantasy World,Art,Violent,Action,Drama,Science Fiction,Suspense","79,43,37,83,7,1,32,52,69","37,15,59,34,51,80,8,28,12",0,,21474,2022-06-24 18:24:36,153700
5d3b9f531850400001d2bac9,ma_choice_v4_movies_pilot3,5d3b9f531850400001d2bac9,3,1,-1,-1,"Action,Fantasy World,Science Fiction,Drama,Suspense,Art,Violent,Funny,Romantic","69,23,37,78,80,42,57,35,41","11,57,8,4,0,66,13,9,0",0,,8616,2022-06-24 18:24:36,153701
6100642b95c4e149c6e44c38,ma_choice_v4_movies_pilot3,6100642b95c4e149c6e44c38,92,0,-1,-1,"Science Fiction,Violent,Fantasy World,Drama,Romantic,Suspense,Art,Action,Funny","82,49,75,73,5,73,35,34,35","34,3,44,9,88,26,2,5,3",0,,8789,2022-06-24 18:24:44,153702
5d3b9f531850400001d2bac9,ma_choice_v4_movies_pilot3,5d3b9f531850400001d2bac9,4,1,-1,-1,"Fantasy World,Suspense,Science Fiction,Drama,Action,Art,Funny,Romantic,Violent","61,18,47,11,18,14,56,39,13","34,62,24,73,66,79,16,3,68",1,,9256,2022-06-24 18:24:47,153703
6103907e48194088cd8e0b05,ma_choice_v4_movies_pilot3,6103907e48194088cd8e0b05,13,0,-1,-1,"Suspense,Violent,Romantic,Art,Action,Drama,Fantasy World,Science Fiction,Funny","77,44,20,9,35,19,41,89,11","14,14,0,70,3,77,63,25,49",0,,15534,2022-06-24 18:24:52,153704
5d3b9f531850400001d2bac9,ma_choice_v4_movies_pilot3,5d3b9f531850400001d2bac9,5,1,-1,-1,"Art,Fantasy World,Romantic,Funny,Violent,Suspense,Science Fiction,Drama,Action","99,26,15,5,1,3,18,51,3","10,46,41,65,37,31,48,14,24",0,,8047,2022-06-24 18:24:56,153705
6100642b95c4e149c6e44c38,ma_choice_v4_movies_pilot3,6100642b95c4e149c6e44c38,93,0,-1,-1,"Fantasy World,Drama,Romantic,Action,Science Fiction,Suspense,Funny,Violent,Art","60,12,2,5,39,25,17,57,9","35,78,54,41,17,53,54,10,42",1,,18492,2022-06-24 18:25:04,153706
5d3b9f531850400001d2bac9,ma_choice_v4_movies_pilot3,5d3b9f531850400001d2bac9,6,1,-1,-1,"Fantasy World,Drama,Suspense,Romantic,Science Fiction,Action,Violent,Funny,Art","34,84,48,9,22,3,26,1,74","55,12,12,35,51,27,3,80,8",0,,12973,2022-06-24 18:25:10,153707
6100642b95c4e149c6e44c38,ma_choice_v4_movies_pilot3,6100642b95c4e149c6e44c38,94,0,-1,-1,"Action,Art,Suspense,Funny,Romantic,Drama,Violent,Science Fiction,Fantasy World","80,87,15,22,14,59,71,55,40","12,25,76,1,43,16,2,6,67",0,,7609,2022-06-24 18:25:13,153708
5d3b9f531850400001d2bac9,ma_choice_v4_movies_pilot3,5d3b9f531850400001d2bac9,7,1,-1,-1,"Art,Suspense,Science Fiction,Fantasy World,Action,Violent,Romantic,Funny,Drama","24,69,47,40,36,74,18,61,15","50,10,22,75,15,28,78,16,78",1,,9116,2022-06-24 18:25:20,153709
6103907e48194088cd8e0b05,ma_choice_v4_movies_pilot3,6103907e48194088cd8e0b05,14,0,-1,-1,"Violent,Drama,Funny,Romantic,Suspense,Science Fiction,Fantasy World,Art,Action","68,62,6,14,80,1,34,65,13","14,14,45,86,19,29,60,16,71",0,,27644,2022-06-24 18:25:21,153710
6100642b95c4e149c6e44c38,ma_choice_v4_movies_pilot3,6100642b95c4e149c6e44c38,95,0,-1,-1,"Action,Violent,Science Fiction,Fantasy World,Funny,Art,Romantic,Drama,Suspense","4,77,0,18,6,87,78,54,23","32,1,35,41,37,54,3,2,1",1,,11860,2022-06-24 18:25:25,153711
628b8f6a7a0084a4b2e1a007,ma_choice_v4_movies_pilot3,628b8f6a7a0084a4b2e1a007,0,1,-1,-1,"Action,Suspense,Science Fiction,Romantic,Fantasy World,Drama,Violent,Funny,Art","3,1,43,1,41,5,32,52,4","33,87,14,52,19,47,2,12,38",1,,26804,2022-06-24 18:25:29,153712
5d3b9f531850400001d2bac9,ma_choice_v4_movies_pilot3,5d3b9f531850400001d2bac9,8,1,-1,-1,"Romantic,Science Fiction,Art,Funny,Suspense,Drama,Violent,Action,Fantasy World","14,20,70,0,2,65,3,3,25","37,45,36,73,24,21,30,34,46",0,,9115,2022-06-24 18:25:30,153713
6100642b95c4e149c6e44c38,ma_choice_v4_movies_pilot3,6100642b95c4e149c6e44c38,96,0,-1,-1,"Action,Drama,Science Fiction,Funny,Violent,Art,Suspense,Romantic,Fantasy World","11,76,16,6,77,69,77,82,58","64,17,68,73,17,18,19,4,34",1,,9592,2022-06-24 18:25:36,153714
6103907e48194088cd8e0b05,ma_choice_v4_movies_pilot3,6103907e48194088cd8e0b05,15,0,-1,-1,"Violent,Fantasy World,Romantic,Suspense,Action,Drama,Art,Funny,Science Fiction","83,69,5,57,55,79,11,1,60","13,46,83,4,10,7,31,69,30",0,,17949,2022-06-24 18:25:40,153715
628b8f6a7a0084a4b2e1a007,ma_choice_v4_movies_pilot3,628b8f6a7a0084a4b2e1a007,1,1,-1,-1,"Art,Suspense,Science Fiction,Romantic,Violent,Drama,Action,Fantasy World,Funny","10,31,48,41,37,14,24,46,65","99,3,18,15,1,51,3,26,5",0,,16121,2022-06-24 18:25:46,153716
5d3b9f531850400001d2bac9,ma_choice_v4_movies_pilot3,5d3b9f531850400001d2bac9,9,1,-1,-1,"Funny,Art,Science Fiction,Fantasy World,Romantic,Action,Violent,Drama,Suspense","52,4,43,41,1,3,32,5,1","12,38,14,19,52,33,2,47,87",1,,16111,2022-06-24 18:25:47,153717
6103907e48194088cd8e0b05,ma_choice_v4_movies_pilot3,6103907e48194088cd8e0b05,16,0,-1,-1,"Suspense,Violent,Science Fiction,Fantasy World,Art,Romantic,Action,Drama,Funny","57,85,101,37,50,0,75,33,1","6,1,42,91,7,49,18,73,37",0,,7860,2022-06-24 18:25:49,153718
6100642b95c4e149c6e44c38,ma_choice_v4_movies_pilot3,6100642b95c4e149c6e44c38,97,0,-1,-1,"Science Fiction,Suspense,Art,Action,Romantic,Funny,Drama,Fantasy World,Violent","26,76,79,3,17,0,79,45,50","5,8,2,55,87,38,21,78,2",0,,11992,2022-06-24 18:25:49,153719
628b8f6a7a0084a4b2e1a007,ma_choice_v4_movies_pilot3,628b8f6a7a0084a4b2e1a007,2,1,-1,-1,"Romantic,Science Fiction,Violent,Drama,Art,Action,Funny,Suspense,Fantasy World","21,47,78,61,69,83,47,78,54","100,15,1,21,11,20,3,2,31",0,,8677,2022-06-24 18:25:56,153720
6103907e48194088cd8e0b05,ma_choice_v4_movies_pilot3,6103907e48194088cd8e0b05,17,0,-1,-1,"Funny,Fantasy World,Action,Drama,Romantic,Science Fiction,Art,Violent,Suspense","41,76,33,22,43,73,13,35,11","5,23,10,64,15,8,61,12,42",0,,8657,2022-06-24 18:25:58,153721
6100642b95c4e149c6e44c38,ma_choice_v4_movies_pilot3,6100642b95c4e149c6e44c38,98,0,-1,-1,"Funny,Science Fiction,Romantic,Art,Drama,Suspense,Fantasy World,Violent,Action","2,46,2,50,75,54,46,78,88","33,26,78,71,22,1,24,1,2",0,,13774,2022-06-24 18:26:04,153722
628b8f6a7a0084a4b2e1a007,ma_choice_v4_movies_pilot3,628b8f6a7a0084a4b2e1a007,3,1,-1,-1,"Action,Suspense,Art,Funny,Fantasy World,Romantic,Science Fiction,Violent,Drama","18,18,14,56,61,39,47,13,11","66,62,79,16,34,3,24,68,73",1,,7560,2022-06-24 18:26:05,153723
6103907e48194088cd8e0b05,ma_choice_v4_movies_pilot3,6103907e48194088cd8e0b05,18,0,-1,-1,"Drama,Art,Fantasy World,Romantic,Science Fiction,Funny,Violent,Suspense,Action","6,12,75,0,103,12,5,4,41","70,107,45,21,32,53,33,25,15",1,,7987,2022-06-24 18:26:08,153724
6100642b95c4e149c6e44c38,ma_choice_v4_movies_pilot3,6100642b95c4e149c6e44c38,99,0,-1,-1,"Funny,Violent,Drama,Fantasy World,Suspense,Romantic,Art,Science Fiction,Action","14,87,79,46,73,15,49,70,62","66,13,11,83,9,78,15,14,19",0,,7542,2022-06-24 18:26:12,153725
628b8f6a7a0084a4b2e1a007,ma_choice_v4_movies_pilot3,628b8f6a7a0084a4b2e1a007,4,1,-1,-1,"Action,Suspense,Romantic,Funny,Violent,Art,Drama,Fantasy World,Science Fiction","36,69,18,61,74,24,15,40,47","15,10,78,16,28,50,78,75,22",0,,9574,2022-06-24 18:26:15,153726
5d3b9f531850400001d2bac9,ma_choice_v4_movies_pilot3,5d3b9f531850400001d2bac9,0,0,-1,-1,"Drama,Action,Art,Science Fiction,Funny,Violent,Fantasy World,Suspense,Romantic","52,5,17,71,26,1,23,61,0","31,40,42,0,3,97,67,9,20",0,,14170,2022-06-24 18:26:17,153727
628b8f6a7a0084a4b2e1a007,ma_choice_v4_movies_pilot3,628b8f6a7a0084a4b2e1a007,5,1,-1,-1,"Suspense,Drama,Science Fiction,Funny,Fantasy World,Violent,Action,Art,Romantic","2,65,20,0,25,3,3,70,14","24,21,45,73,46,30,34,36,37",1,,8937,2022-06-24 18:26:25,153728
5d3b9f531850400001d2bac9,ma_choice_v4_movies_pilot3,5d3b9f531850400001d2bac9,1,0,-1,-1,"Violent,Suspense,Fantasy World,Art,Romantic,Science Fiction,Action,Drama,Funny","16,73,24,84,70,41,84,23,7","38,49,60,15,32,13,57,68,33",1,,9705,2022-06-24 18:26:28,153729
628b8f6a7a0084a4b2e1a007,ma_choice_v4_movies_pilot3,628b8f6a7a0084a4b2e1a007,6,1,-1,-1,"Fantasy World,Funny,Drama,Romantic,Suspense,Science Fiction,Violent,Art,Action","23,35,78,41,80,37,57,42,69","57,9,4,0,0,8,13,66,11",0,,7875,2022-06-24 18:26:34,153730
5d3b9f531850400001d2bac9,ma_choice_v4_movies_pilot3,5d3b9f531850400001d2bac9,2,0,-1,-1,"Funny,Art,Science Fiction,Drama,Fantasy World,Action,Violent,Suspense,Romantic","2,54,22,63,32,8,33,48,3","37,15,88,4,53,56,1,11,37",0,,11358,2022-06-24 18:26:40,153731
6103907e48194088cd8e0b05,ma_choice_v4_movies_pilot3,6103907e48194088cd8e0b05,19,0,-1,-1,"Suspense,Funny,Science Fiction,Drama,Romantic,Violent,Art,Action,Fantasy World","46,28,64,31,10,66,36,77,50","17,4,19,71,59,1,72,7,29",0,,40164,2022-06-24 18:26:48,153732
628b8f6a7a0084a4b2e1a007,ma_choice_v4_movies_pilot3,628b8f6a7a0084a4b2e1a007,7,1,-1,-1,"Art,Funny,Romantic,Drama,Science Fiction,Violent,Fantasy World,Action,Suspense","74,1,9,84,22,26,34,3,48","8,80,35,12,51,3,55,27,12",1,,13772,2022-06-24 18:26:49,153733
5d3b9f531850400001d2bac9,ma_choice_v4_movies_pilot3,5d3b9f531850400001d2bac9,3,0,-1,-1,"Funny,Suspense,Violent,Science Fiction,Action,Art,Fantasy World,Romantic,Drama","1,75,47,17,30,13,65,5,17","24,45,12,63,7,72,29,37,76",1,,8419,2022-06-24 18:26:49,153734
5d3b9f531850400001d2bac9,ma_choice_v4_movies_pilot3,5d3b9f531850400001d2bac9,4,0,-1,-1,"Funny,Romantic,Action,Drama,Art,Science Fiction,Fantasy World,Suspense,Violent","45,3,92,21,5,52,66,14,70","10,23,7,78,43,8,41,80,2",1,,11329,2022-06-24 18:27:02,153735
6103907e48194088cd8e0b05,ma_choice_v4_movies_pilot3,6103907e48194088cd8e0b05,20,0,-1,-1,"Suspense,Science Fiction,Romantic,Funny,Drama,Action,Violent,Art,Fantasy World","78,83,12,40,50,56,78,8,50","29,26,55,8,20,4,20,34,73",0,,12211,2022-06-24 18:27:02,153736
628b8f6a7a0084a4b2e1a007,ma_choice_v4_movies_pilot3,628b8f6a7a0084a4b2e1a007,8,1,-1,-1,"Fantasy World,Science Fiction,Funny,Suspense,Violent,Art,Romantic,Action,Drama","34,17,1,19,39,65,0,6,80","65,87,30,90,3,13,25,79,22",1,,17408,2022-06-24 18:27:07,153737
