subject,version,assignmentId,trial,practice,opt1_id,opt2_id,attributes,opt1_values,opt2_values,choice,orig_choice,rt,stamp,id
61087340524af628c86bc38c,ma_choice_v4_movies_pilot4,61087340524af628c86bc38c,0,1,-1,-1,"artistic,visual,dialogue,great acting,funny,plot,romantic,good action,awesome soundtrack","5,38,60,10,37,0,1,2,41","32,3,31,38,16,24,27,39,7",0,,11866,2022-06-26 17:50:33,155863
61087340524af628c86bc38c,ma_choice_v4_movies_pilot4,61087340524af628c86bc38c,1,1,-1,-1,"romantic,visual,great acting,awesome soundtrack,good action,funny,plot,artistic,dialogue","2,14,44,4,39,1,30,40,64","39,35,18,51,9,26,0,10,41",0,,15055,2022-06-26 17:50:49,155864
61087340524af628c86bc38c,ma_choice_v4_movies_pilot4,61087340524af628c86bc38c,2,1,-1,-1,"good action,plot,romantic,artistic,visual,dialogue,great acting,awesome soundtrack,funny","0,31,23,59,57,31,61,31,55","32,58,0,32,84,72,35,86,3",0,,23316,2022-06-26 17:51:13,155865
61087340524af628c86bc38c,ma_choice_v4_movies_pilot4,61087340524af628c86bc38c,3,1,-1,-1,"romantic,plot,funny,dialogue,good action,great acting,visual,awesome soundtrack,artistic","33,41,75,44,40,52,27,16,11","10,3,8,83,6,75,95,80,52",1,,9260,2022-06-26 17:51:24,155866
61087340524af628c86bc38c,ma_choice_v4_movies_pilot4,61087340524af628c86bc38c,4,1,-1,-1,"dialogue,visual,great acting,plot,romantic,good action,artistic,awesome soundtrack,funny","42,10,12,54,9,87,8,31,46","18,58,35,2,32,2,67,6,1",0,,15651,2022-06-26 17:51:40,155867
61087340524af628c86bc38c,ma_choice_v4_movies_pilot4,61087340524af628c86bc38c,5,1,-1,-1,"funny,good action,awesome soundtrack,dialogue,romantic,artistic,plot,great acting,visual","64,42,75,95,53,48,75,92,80","2,0,25,62,10,18,24,26,23",0,,7812,2022-06-26 17:51:49,155868
61087340524af628c86bc38c,ma_choice_v4_movies_pilot4,61087340524af628c86bc38c,6,1,-1,-1,"good action,funny,great acting,romantic,visual,artistic,awesome soundtrack,plot,dialogue","31,52,70,33,30,18,61,17,83","0,2,46,76,84,65,10,42,45",1,,28184,2022-06-26 17:52:18,155869
61087340524af628c86bc38c,ma_choice_v4_movies_pilot4,61087340524af628c86bc38c,7,1,-1,-1,"artistic,funny,visual,plot,dialogue,good action,great acting,romantic,awesome soundtrack","57,45,74,25,76,31,75,30,75","19,20,30,2,6,0,35,62,39",0,,8024,2022-06-26 17:52:27,155870
61087340524af628c86bc38c,ma_choice_v4_movies_pilot4,61087340524af628c86bc38c,8,1,-1,-1,"romantic,plot,visual,awesome soundtrack,funny,artistic,dialogue,great acting,good action","8,35,73,55,4,1,32,15,72","73,58,21,24,61,23,74,55,4",1,,8268,2022-06-26 17:52:37,155871
61087340524af628c86bc38c,ma_choice_v4_movies_pilot4,61087340524af628c86bc38c,9,1,-1,-1,"artistic,romantic,great acting,funny,good action,plot,dialogue,awesome soundtrack,visual","36,52,69,24,34,27,94,60,60","91,15,34,51,0,59,66,29,91",1,,11725,2022-06-26 17:52:49,155872
61087340524af628c86bc38c,ma_choice_v4_movies_pilot4,61087340524af628c86bc38c,0,0,-1,-1,"awesome soundtrack,romantic,funny,good action,plot,great acting,visual,dialogue,artistic","11,15,32,0,34,27,61,39,42","75,51,65,38,7,64,38,62,14",1,,8171,2022-06-26 17:53:16,155873
61087340524af628c86bc38c,ma_choice_v4_movies_pilot4,61087340524af628c86bc38c,1,0,-1,-1,"dialogue,awesome soundtrack,visual,good action,funny,artistic,romantic,plot,great acting","62,28,23,42,59,2,4,18,17","39,4,45,0,0,28,44,50,53",1,,11877,2022-06-26 17:53:29,155874
61087340524af628c86bc38c,ma_choice_v4_movies_pilot4,61087340524af628c86bc38c,2,0,-1,-1,"dialogue,great acting,plot,funny,artistic,good action,visual,romantic,awesome soundtrack","36,28,45,78,2,55,19,65,22","66,54,20,55,23,14,80,0,45",1,,13700,2022-06-26 17:53:44,155875
61087340524af628c86bc38c,ma_choice_v4_movies_pilot4,61087340524af628c86bc38c,3,0,-1,-1,"artistic,great acting,good action,romantic,awesome soundtrack,dialogue,plot,visual,funny","11,27,9,91,16,50,39,29,68","36,64,65,0,41,7,7,58,1",0,,13448,2022-06-26 17:53:58,155876
61087340524af628c86bc38c,ma_choice_v4_movies_pilot4,61087340524af628c86bc38c,4,0,-1,-1,"funny,great acting,plot,awesome soundtrack,romantic,good action,dialogue,artistic,visual","3,53,32,9,100,2,5,7,14","62,32,53,54,16,70,74,48,98",1,,7951,2022-06-26 17:54:07,155877
61087340524af628c86bc38c,ma_choice_v4_movies_pilot4,61087340524af628c86bc38c,5,0,-1,-1,"visual,artistic,great acting,plot,dialogue,awesome soundtrack,romantic,good action,funny","26,3,67,50,49,8,27,44,41","75,64,42,19,88,57,63,1,9",0,,15152,2022-06-26 17:54:23,155878
61087340524af628c86bc38c,ma_choice_v4_movies_pilot4,61087340524af628c86bc38c,6,0,-1,-1,"funny,romantic,artistic,awesome soundtrack,dialogue,great acting,plot,good action,visual","56,2,57,75,53,74,44,83,67","10,26,7,35,75,41,17,19,28",0,,8076,2022-06-26 17:54:32,155879
61087340524af628c86bc38c,ma_choice_v4_movies_pilot4,61087340524af628c86bc38c,7,0,-1,-1,"plot,funny,great acting,awesome soundtrack,dialogue,visual,good action,artistic,romantic","42,31,23,11,62,11,63,29,11","66,9,52,43,36,61,15,6,47",1,,9394,2022-06-26 17:54:43,155880
61087340524af628c86bc38c,ma_choice_v4_movies_pilot4,61087340524af628c86bc38c,8,0,-1,-1,"awesome soundtrack,artistic,visual,romantic,dialogue,funny,good action,great acting,plot","14,32,81,0,60,2,20,32,30","41,11,8,78,81,77,0,54,56",1,,8208,2022-06-26 17:54:52,155881
61087340524af628c86bc38c,ma_choice_v4_movies_pilot4,61087340524af628c86bc38c,9,0,-1,-1,"good action,funny,great acting,romantic,awesome soundtrack,plot,visual,dialogue,artistic","3,1,78,26,10,1,21,62,10","96,25,43,64,38,54,48,33,31",1,,9503,2022-06-26 17:55:02,155882
61087340524af628c86bc38c,ma_choice_v4_movies_pilot4,61087340524af628c86bc38c,10,0,-1,-1,"visual,romantic,funny,dialogue,good action,great acting,artistic,plot,awesome soundtrack","5,90,71,12,24,33,7,37,16","30,17,24,44,0,54,55,14,70",0,,15336,2022-06-26 17:55:19,155883
61087340524af628c86bc38c,ma_choice_v4_movies_pilot4,61087340524af628c86bc38c,11,0,-1,-1,"dialogue,plot,romantic,good action,artistic,awesome soundtrack,funny,great acting,visual","63,28,4,0,10,15,49,50,8","34,1,48,26,33,78,1,23,33",0,,10950,2022-06-26 17:55:31,155884
61087340524af628c86bc38c,ma_choice_v4_movies_pilot4,61087340524af628c86bc38c,12,0,-1,-1,"dialogue,visual,great acting,funny,plot,awesome soundtrack,good action,romantic,artistic","66,88,6,1,37,14,80,14,26","36,6,38,69,3,48,53,41,1",1,,8365,2022-06-26 17:55:40,155885
61087340524af628c86bc38c,ma_choice_v4_movies_pilot4,61087340524af628c86bc38c,13,0,-1,-1,"visual,great acting,plot,funny,good action,dialogue,artistic,awesome soundtrack,romantic","38,76,55,60,5,77,32,19,76","74,34,32,2,27,51,7,54,33",0,,7888,2022-06-26 17:55:49,155886
61087340524af628c86bc38c,ma_choice_v4_movies_pilot4,61087340524af628c86bc38c,14,0,-1,-1,"dialogue,visual,good action,awesome soundtrack,romantic,great acting,plot,funny,artistic","13,42,37,24,34,41,37,28,33","38,21,3,3,0,67,12,1,2",0,,7925,2022-06-26 17:55:58,155887
61087340524af628c86bc38c,ma_choice_v4_movies_pilot4,61087340524af628c86bc38c,15,0,-1,-1,"plot,dialogue,visual,great acting,good action,awesome soundtrack,artistic,romantic,funny","46,52,20,40,3,58,4,21,12","13,81,48,75,84,80,26,68,35",1,,7588,2022-06-26 17:56:08,155888
61087340524af628c86bc38c,ma_choice_v4_movies_pilot4,61087340524af628c86bc38c,16,0,-1,-1,"good action,romantic,awesome soundtrack,great acting,visual,artistic,funny,dialogue,plot","25,48,4,34,31,34,48,47,2","2,2,24,73,62,14,9,68,58",0,,8450,2022-06-26 17:56:16,155889
61087340524af628c86bc38c,ma_choice_v4_movies_pilot4,61087340524af628c86bc38c,17,0,-1,-1,"visual,good action,great acting,funny,plot,awesome soundtrack,artistic,romantic,dialogue","9,5,54,0,1,58,28,22,64","37,47,12,23,46,26,1,0,13",0,,9947,2022-06-26 17:56:27,155890
61087340524af628c86bc38c,ma_choice_v4_movies_pilot4,61087340524af628c86bc38c,18,0,-1,-1,"dialogue,great acting,artistic,plot,romantic,awesome soundtrack,good action,funny,visual","14,25,2,19,39,23,74,64,22","80,78,29,44,74,62,6,35,0",1,,9528,2022-06-26 17:56:37,155891
61087340524af628c86bc38c,ma_choice_v4_movies_pilot4,61087340524af628c86bc38c,19,0,-1,-1,"artistic,plot,visual,good action,dialogue,romantic,awesome soundtrack,great acting,funny","78,1,92,0,20,4,14,76,1","10,60,64,66,93,26,68,56,53",1,,7745,2022-06-26 17:56:46,155892
61087340524af628c86bc38c,ma_choice_v4_movies_pilot4,61087340524af628c86bc38c,20,0,-1,-1,"great acting,good action,awesome soundtrack,plot,dialogue,romantic,artistic,funny,visual","13,0,57,40,48,72,3,2,49","57,42,90,3,76,1,28,54,77",1,,8225,2022-06-26 17:56:55,155893
61087340524af628c86bc38c,ma_choice_v4_movies_pilot4,61087340524af628c86bc38c,21,0,-1,-1,"funny,good action,plot,visual,artistic,romantic,dialogue,great acting,awesome soundtrack","0,0,23,18,44,14,64,63,13","65,89,43,51,3,84,29,35,64",1,,7954,2022-06-26 17:57:04,155894
61087340524af628c86bc38c,ma_choice_v4_movies_pilot4,61087340524af628c86bc38c,22,0,-1,-1,"funny,plot,romantic,awesome soundtrack,visual,dialogue,good action,artistic,great acting","52,41,37,52,18,74,78,8,21","15,14,5,18,38,6,20,52,48",0,,7554,2022-06-26 17:57:13,155895
61087340524af628c86bc38c,ma_choice_v4_movies_pilot4,61087340524af628c86bc38c,23,0,-1,-1,"funny,awesome soundtrack,plot,good action,romantic,great acting,artistic,visual,dialogue","58,51,40,86,1,31,5,16,44","5,18,20,0,59,65,28,40,64",0,,8381,2022-06-26 17:57:22,155896
61087340524af628c86bc38c,ma_choice_v4_movies_pilot4,61087340524af628c86bc38c,24,0,-1,-1,"great acting,dialogue,funny,romantic,awesome soundtrack,good action,visual,artistic,plot","23,27,80,93,18,32,9,2,48","48,68,7,56,59,0,48,42,2",0,,11000,2022-06-26 17:57:34,155897
61087340524af628c86bc38c,ma_choice_v4_movies_pilot4,61087340524af628c86bc38c,25,0,-1,-1,"great acting,good action,dialogue,awesome soundtrack,funny,plot,visual,artistic,romantic","64,74,39,57,17,67,61,29,20","38,0,66,36,42,3,15,7,69",0,,10308,2022-06-26 17:57:46,155898
61087340524af628c86bc38c,ma_choice_v4_movies_pilot4,61087340524af628c86bc38c,26,0,-1,-1,"plot,romantic,good action,artistic,visual,great acting,awesome soundtrack,dialogue,funny","1,32,4,39,29,62,15,61,3","53,86,32,6,7,34,39,33,25",1,,9845,2022-06-26 17:57:57,155899
61087340524af628c86bc38c,ma_choice_v4_movies_pilot4,61087340524af628c86bc38c,27,0,-1,-1,"visual,plot,good action,great acting,romantic,awesome soundtrack,artistic,funny,dialogue","85,58,5,73,2,73,31,1,47","33,24,44,47,43,23,10,30,80",1,,10696,2022-06-26 17:58:08,155900
61087340524af628c86bc38c,ma_choice_v4_movies_pilot4,61087340524af628c86bc38c,28,0,-1,-1,"funny,great acting,visual,artistic,romantic,plot,awesome soundtrack,good action,dialogue","3,6,73,37,2,3,14,0,7","82,47,37,8,28,49,45,74,36",1,,7568,2022-06-26 17:58:17,155901
61087340524af628c86bc38c,ma_choice_v4_movies_pilot4,61087340524af628c86bc38c,29,0,-1,-1,"plot,dialogue,funny,great acting,artistic,awesome soundtrack,visual,good action,romantic","1,9,10,18,36,11,20,1,4","35,44,31,52,13,52,73,50,45",1,,7630,2022-06-26 17:58:25,155902
61087340524af628c86bc38c,ma_choice_v4_movies_pilot4,61087340524af628c86bc38c,30,0,-1,-1,"awesome soundtrack,artistic,great acting,visual,good action,funny,plot,romantic,dialogue","7,7,39,5,0,81,59,21,63","88,29,75,93,81,4,26,51,90",1,,7704,2022-06-26 17:58:34,155903
61087340524af628c86bc38c,ma_choice_v4_movies_pilot4,61087340524af628c86bc38c,31,0,-1,-1,"artistic,awesome soundtrack,funny,great acting,plot,dialogue,visual,good action,romantic","5,43,61,28,50,30,46,95,55","66,18,1,53,1,77,26,0,1",0,,7677,2022-06-26 17:58:43,155904
61087340524af628c86bc38c,ma_choice_v4_movies_pilot4,61087340524af628c86bc38c,32,0,-1,-1,"visual,awesome soundtrack,good action,funny,romantic,great acting,plot,artistic,dialogue","26,26,0,1,34,72,17,43,44","53,6,30,69,58,42,38,6,22",1,,8575,2022-06-26 17:58:52,155905
61087340524af628c86bc38c,ma_choice_v4_movies_pilot4,61087340524af628c86bc38c,33,0,-1,-1,"good action,funny,great acting,visual,awesome soundtrack,romantic,artistic,dialogue,plot","2,1,12,16,24,0,41,21,52","34,43,51,61,85,73,5,94,3",1,,8132,2022-06-26 17:59:02,155906
61087340524af628c86bc38c,ma_choice_v4_movies_pilot4,61087340524af628c86bc38c,34,0,-1,-1,"romantic,funny,artistic,visual,good action,plot,great acting,dialogue,awesome soundtrack","44,38,17,75,73,10,75,86,91","89,59,51,2,0,36,52,17,9",0,,12258,2022-06-26 17:59:15,155907
61087340524af628c86bc38c,ma_choice_v4_movies_pilot4,61087340524af628c86bc38c,35,0,-1,-1,"plot,visual,dialogue,awesome soundtrack,great acting,artistic,good action,funny,romantic","35,30,79,27,60,25,0,32,61","73,67,49,86,35,2,95,62,9",1,,7564,2022-06-26 17:59:23,155908
61087340524af628c86bc38c,ma_choice_v4_movies_pilot4,61087340524af628c86bc38c,36,0,-1,-1,"dialogue,artistic,plot,romantic,awesome soundtrack,funny,good action,visual,great acting","68,5,21,15,37,11,29,53,36","35,41,42,85,16,52,0,11,76",1,,7770,2022-06-26 17:59:32,155909
61087340524af628c86bc38c,ma_choice_v4_movies_pilot4,61087340524af628c86bc38c,37,0,-1,-1,"visual,romantic,plot,funny,good action,great acting,dialogue,awesome soundtrack,artistic","5,78,68,43,69,43,37,71,42","61,16,45,0,0,63,86,30,21",0,,12214,2022-06-26 17:59:45,155910
61087340524af628c86bc38c,ma_choice_v4_movies_pilot4,61087340524af628c86bc38c,38,0,-1,-1,"awesome soundtrack,romantic,great acting,visual,artistic,funny,plot,dialogue,good action","64,15,68,45,55,70,45,95,9","8,37,39,14,11,14,8,42,34",0,,9356,2022-06-26 17:59:56,155911
61087340524af628c86bc38c,ma_choice_v4_movies_pilot4,61087340524af628c86bc38c,39,0,-1,-1,"plot,artistic,funny,visual,awesome soundtrack,great acting,romantic,dialogue,good action","21,30,8,59,65,64,6,56,1","43,8,63,10,20,38,85,19,33",1,,8037,2022-06-26 18:00:05,155912
61087340524af628c86bc38c,ma_choice_v4_movies_pilot4,61087340524af628c86bc38c,40,0,-1,-1,"funny,artistic,plot,great acting,romantic,dialogue,good action,visual,awesome soundtrack","37,58,55,69,81,9,71,40,64","1,7,10,41,19,59,0,13,7",0,,7866,2022-06-26 18:00:14,155913
61087340524af628c86bc38c,ma_choice_v4_movies_pilot4,61087340524af628c86bc38c,41,0,-1,-1,"dialogue,good action,romantic,plot,awesome soundtrack,funny,artistic,great acting,visual","13,2,6,1,3,1,36,19,4","55,85,47,60,40,78,7,43,47",1,,9743,2022-06-26 18:00:24,155914
61087340524af628c86bc38c,ma_choice_v4_movies_pilot4,61087340524af628c86bc38c,42,0,-1,-1,"good action,visual,dialogue,plot,awesome soundtrack,great acting,artistic,funny,romantic","26,10,9,30,15,27,26,66,23","5,87,58,2,70,59,48,1,1",0,,10894,2022-06-26 18:00:36,155915
61087340524af628c86bc38c,ma_choice_v4_movies_pilot4,61087340524af628c86bc38c,43,0,-1,-1,"visual,good action,dialogue,artistic,romantic,plot,funny,great acting,awesome soundtrack","20,43,51,5,46,57,68,40,27","62,3,77,25,79,36,29,74,54",0,,7960,2022-06-26 18:00:45,155916
61087340524af628c86bc38c,ma_choice_v4_movies_pilot4,61087340524af628c86bc38c,44,0,-1,-1,"dialogue,plot,artistic,funny,good action,romantic,visual,great acting,awesome soundtrack","74,19,34,83,32,7,47,70,55","21,55,7,0,0,44,74,40,2",0,,10860,2022-06-26 18:00:57,155917
61087340524af628c86bc38c,ma_choice_v4_movies_pilot4,61087340524af628c86bc38c,45,0,-1,-1,"plot,awesome soundtrack,funny,romantic,good action,great acting,artistic,dialogue,visual","37,28,61,86,34,27,45,15,10","1,3,1,13,1,56,4,66,57",0,,13017,2022-06-26 18:01:11,155918
61087340524af628c86bc38c,ma_choice_v4_movies_pilot4,61087340524af628c86bc38c,46,0,-1,-1,"awesome soundtrack,great acting,plot,visual,artistic,funny,good action,romantic,dialogue","31,13,23,25,3,71,45,24,58","63,37,1,2,38,7,0,2,5",0,,8947,2022-06-26 18:01:21,155919
61087340524af628c86bc38c,ma_choice_v4_movies_pilot4,61087340524af628c86bc38c,47,0,-1,-1,"dialogue,funny,artistic,romantic,awesome soundtrack,great acting,visual,good action,plot","87,85,33,27,66,59,33,17,42","46,10,4,0,42,18,66,92,71",0,,7975,2022-06-26 18:01:30,155920
61087340524af628c86bc38c,ma_choice_v4_movies_pilot4,61087340524af628c86bc38c,48,0,-1,-1,"romantic,plot,funny,artistic,great acting,visual,awesome soundtrack,good action,dialogue","7,17,52,17,30,9,30,88,72","48,38,0,42,81,72,4,0,38",1,,8815,2022-06-26 18:01:40,155921
61087340524af628c86bc38c,ma_choice_v4_movies_pilot4,61087340524af628c86bc38c,49,0,-1,-1,"awesome soundtrack,plot,great acting,good action,dialogue,funny,artistic,romantic,visual","1,55,51,4,25,64,37,24,1","22,31,15,61,56,14,1,51,29",0,,8518,2022-06-26 18:01:49,155922
61087340524af628c86bc38c,ma_choice_v4_movies_pilot4,61087340524af628c86bc38c,50,0,-1,-1,"plot,awesome soundtrack,dialogue,good action,artistic,visual,great acting,romantic,funny","35,10,51,65,9,52,49,11,7","7,76,86,6,31,26,74,85,44",1,,9377,2022-06-26 18:02:00,155923
61087340524af628c86bc38c,ma_choice_v4_movies_pilot4,61087340524af628c86bc38c,51,0,-1,-1,"romantic,great acting,funny,good action,dialogue,visual,plot,awesome soundtrack,artistic","63,89,29,33,32,5,12,73,4","12,60,54,0,75,29,46,30,59",1,,9712,2022-06-26 18:02:11,155924
61087340524af628c86bc38c,ma_choice_v4_movies_pilot4,61087340524af628c86bc38c,52,0,-1,-1,"romantic,great acting,visual,plot,funny,dialogue,good action,artistic,awesome soundtrack","80,36,33,49,49,19,28,3,56","10,66,75,21,0,76,0,66,26",0,,12578,2022-06-26 18:02:24,155925
61087340524af628c86bc38c,ma_choice_v4_movies_pilot4,61087340524af628c86bc38c,53,0,-1,-1,"funny,plot,good action,dialogue,artistic,visual,great acting,romantic,awesome soundtrack","61,37,41,68,38,29,32,63,68","0,3,0,18,15,70,67,29,15",0,,11138,2022-06-26 18:02:36,155926
61087340524af628c86bc38c,ma_choice_v4_movies_pilot4,61087340524af628c86bc38c,54,0,-1,-1,"visual,romantic,dialogue,plot,artistic,awesome soundtrack,great acting,good action,funny","39,76,55,37,4,2,26,1,5","80,18,95,13,29,85,75,82,39",1,,8379,2022-06-26 18:02:46,155927
61087340524af628c86bc38c,ma_choice_v4_movies_pilot4,61087340524af628c86bc38c,55,0,-1,-1,"funny,visual,dialogue,awesome soundtrack,great acting,plot,good action,romantic,artistic","33,34,74,31,46,13,44,22,37","2,54,43,8,74,34,0,0,63",0,,17178,2022-06-26 18:03:04,155928
61087340524af628c86bc38c,ma_choice_v4_movies_pilot4,61087340524af628c86bc38c,56,0,-1,-1,"plot,funny,awesome soundtrack,visual,dialogue,romantic,good action,artistic,great acting","16,7,13,12,38,6,28,10,54","46,27,59,93,76,65,2,59,75",1,,9270,2022-06-26 18:03:14,155929
61087340524af628c86bc38c,ma_choice_v4_movies_pilot4,61087340524af628c86bc38c,57,0,-1,-1,"romantic,plot,visual,good action,funny,dialogue,great acting,awesome soundtrack,artistic","23,41,56,36,78,76,65,24,9","0,67,86,5,7,28,24,50,46",0,,7602,2022-06-26 18:03:23,155930
61087340524af628c86bc38c,ma_choice_v4_movies_pilot4,61087340524af628c86bc38c,58,0,-1,-1,"funny,awesome soundtrack,visual,artistic,dialogue,plot,romantic,great acting,good action","12,67,11,36,4,21,2,68,0","46,25,49,3,50,55,32,38,95",1,,8684,2022-06-26 18:03:32,155931
61087340524af628c86bc38c,ma_choice_v4_movies_pilot4,61087340524af628c86bc38c,59,0,-1,-1,"great acting,dialogue,romantic,plot,visual,funny,good action,awesome soundtrack,artistic","80,77,36,45,17,82,0,24,46","14,47,65,0,69,17,43,57,1",0,,7683,2022-06-26 18:03:41,155932
61087340524af628c86bc38c,ma_choice_v4_movies_pilot4,61087340524af628c86bc38c,60,0,-1,-1,"plot,good action,visual,great acting,romantic,artistic,funny,dialogue,awesome soundtrack","7,0,14,32,6,34,2,16,12","43,93,61,60,45,6,47,77,47",1,,8141,2022-06-26 18:03:50,155933
61087340524af628c86bc38c,ma_choice_v4_movies_pilot4,61087340524af628c86bc38c,61,0,-1,-1,"artistic,funny,awesome soundtrack,plot,visual,good action,romantic,great acting,dialogue","2,5,2,49,44,0,44,23,57","41,75,64,19,7,90,65,65,32",1,,7496,2022-06-26 18:03:59,155934
61087340524af628c86bc38c,ma_choice_v4_movies_pilot4,61087340524af628c86bc38c,62,0,-1,-1,"artistic,good action,great acting,romantic,visual,dialogue,plot,awesome soundtrack,funny","13,25,62,51,7,57,40,19,13","56,0,83,23,67,85,7,47,42",1,,7505,2022-06-26 18:04:07,155935
61087340524af628c86bc38c,ma_choice_v4_movies_pilot4,61087340524af628c86bc38c,63,0,-1,-1,"great acting,romantic,good action,visual,dialogue,awesome soundtrack,plot,artistic,funny","23,2,17,16,72,56,1,3,0","88,40,64,76,96,80,51,39,29",1,,7952,2022-06-26 18:04:16,155936
61087340524af628c86bc38c,ma_choice_v4_movies_pilot4,61087340524af628c86bc38c,64,0,-1,-1,"great acting,visual,artistic,funny,plot,good action,dialogue,awesome soundtrack,romantic","79,90,34,44,58,91,86,84,74","50,11,12,1,1,0,25,20,13",0,,7756,2022-06-26 18:04:25,155937
61087340524af628c86bc38c,ma_choice_v4_movies_pilot4,61087340524af628c86bc38c,65,0,-1,-1,"good action,dialogue,visual,artistic,funny,awesome soundtrack,romantic,plot,great acting","40,56,21,13,82,9,30,30,65","1,31,76,45,1,35,52,3,36",0,,9264,2022-06-26 18:04:35,155938
61087340524af628c86bc38c,ma_choice_v4_movies_pilot4,61087340524af628c86bc38c,66,0,-1,-1,"good action,great acting,funny,dialogue,romantic,artistic,awesome soundtrack,plot,visual","10,32,68,36,2,9,15,35,56","35,75,12,64,40,31,90,2,82",0,,7763,2022-06-26 18:04:44,155939
61087340524af628c86bc38c,ma_choice_v4_movies_pilot4,61087340524af628c86bc38c,67,0,-1,-1,"dialogue,romantic,great acting,plot,artistic,visual,funny,good action,awesome soundtrack","57,54,57,57,24,18,26,16,25","8,2,16,19,3,45,1,41,58",0,,7690,2022-06-26 18:04:53,155940
61087340524af628c86bc38c,ma_choice_v4_movies_pilot4,61087340524af628c86bc38c,68,0,-1,-1,"romantic,artistic,funny,plot,visual,awesome soundtrack,great acting,good action,dialogue","0,41,2,1,69,25,33,0,74","70,5,31,37,3,2,82,20,10",1,,14468,2022-06-26 18:05:08,155941
61087340524af628c86bc38c,ma_choice_v4_movies_pilot4,61087340524af628c86bc38c,69,0,-1,-1,"dialogue,awesome soundtrack,great acting,romantic,artistic,good action,visual,funny,plot","47,68,41,26,24,3,37,44,6","72,19,62,80,4,36,4,4,38",0,,8200,2022-06-26 18:05:17,155942
61087340524af628c86bc38c,ma_choice_v4_movies_pilot4,61087340524af628c86bc38c,70,0,-1,-1,"funny,awesome soundtrack,visual,plot,great acting,good action,romantic,artistic,dialogue","5,14,96,65,37,49,18,72,76","51,55,39,20,65,20,55,25,43",1,,8699,2022-06-26 18:05:27,155943
61087340524af628c86bc38c,ma_choice_v4_movies_pilot4,61087340524af628c86bc38c,71,0,-1,-1,"visual,dialogue,good action,plot,romantic,artistic,funny,awesome soundtrack,great acting","65,48,5,13,5,36,6,4,28","29,13,82,59,96,3,52,58,50",1,,7905,2022-06-26 18:05:36,155944
61087340524af628c86bc38c,ma_choice_v4_movies_pilot4,61087340524af628c86bc38c,72,0,-1,-1,"great acting,visual,awesome soundtrack,good action,plot,artistic,dialogue,funny,romantic","49,24,46,15,28,21,24,43,43","81,70,22,46,62,48,81,2,2",0,,8294,2022-06-26 18:05:45,155945
61087340524af628c86bc38c,ma_choice_v4_movies_pilot4,61087340524af628c86bc38c,73,0,-1,-1,"romantic,great acting,good action,plot,awesome soundtrack,funny,visual,dialogue,artistic","12,14,93,24,44,38,71,63,9","63,44,1,49,15,65,6,35,49",1,,8839,2022-06-26 18:05:55,155946
61087340524af628c86bc38c,ma_choice_v4_movies_pilot4,61087340524af628c86bc38c,74,0,-1,-1,"plot,funny,good action,great acting,artistic,dialogue,romantic,visual,awesome soundtrack","28,23,4,30,45,31,4,74,57","7,70,40,59,4,54,53,4,16",1,,16822,2022-06-26 18:06:13,155947
61087340524af628c86bc38c,ma_choice_v4_movies_pilot4,61087340524af628c86bc38c,75,0,-1,-1,"good action,funny,artistic,great acting,romantic,plot,awesome soundtrack,visual,dialogue","2,8,25,81,64,43,46,6,25","41,64,1,17,19,23,19,45,87",0,,10276,2022-06-26 18:06:24,155948
61087340524af628c86bc38c,ma_choice_v4_movies_pilot4,61087340524af628c86bc38c,76,0,-1,-1,"visual,artistic,dialogue,great acting,romantic,plot,awesome soundtrack,funny,good action","50,6,56,24,35,47,50,68,87","3,34,22,45,0,1,10,19,7",0,,7619,2022-06-26 18:06:33,155949
61087340524af628c86bc38c,ma_choice_v4_movies_pilot4,61087340524af628c86bc38c,77,0,-1,-1,"visual,dialogue,plot,great acting,awesome soundtrack,romantic,good action,funny,artistic","77,50,52,32,81,10,2,2,21","46,21,28,77,6,74,23,59,46",1,,7922,2022-06-26 18:06:42,155950
61087340524af628c86bc38c,ma_choice_v4_movies_pilot4,61087340524af628c86bc38c,78,0,-1,-1,"good action,romantic,funny,dialogue,awesome soundtrack,plot,visual,great acting,artistic","3,27,0,28,68,1,49,59,63","30,4,73,70,31,39,24,34,34",0,,15945,2022-06-26 18:06:59,155951
61087340524af628c86bc38c,ma_choice_v4_movies_pilot4,61087340524af628c86bc38c,79,0,-1,-1,"good action,visual,dialogue,plot,awesome soundtrack,romantic,funny,great acting,artistic","53,47,70,37,74,2,16,22,2","1,23,93,11,13,80,40,47,50",1,,10175,2022-06-26 18:07:10,155952
61087340524af628c86bc38c,ma_choice_v4_movies_pilot4,61087340524af628c86bc38c,80,0,-1,-1,"awesome soundtrack,artistic,romantic,great acting,funny,plot,dialogue,good action,visual","21,30,3,22,4,23,14,0,58","88,3,43,61,31,2,79,29,34",1,,10597,2022-06-26 18:07:22,155953
62b44656961e0d774168ef36,ma_choice_v4_movies_pilot4,62b44656961e0d774168ef36,0,1,-1,-1,"great acting,artistic,good action,dialogue,awesome soundtrack,plot,funny,visual,romantic","34,91,0,66,29,59,51,91,15","69,36,34,94,60,27,24,60,52",1,,10233,2022-06-26 18:07:26,155954
61087340524af628c86bc38c,ma_choice_v4_movies_pilot4,61087340524af628c86bc38c,81,0,-1,-1,"awesome soundtrack,funny,romantic,visual,great acting,dialogue,plot,artistic,good action","60,31,37,31,79,80,45,24,0","18,70,68,6,19,23,22,2,57",0,,7787,2022-06-26 18:07:30,155955
61087340524af628c86bc38c,ma_choice_v4_movies_pilot4,61087340524af628c86bc38c,82,0,-1,-1,"funny,plot,artistic,great acting,visual,awesome soundtrack,good action,romantic,dialogue","1,40,37,32,4,76,39,2,31","58,61,5,60,53,42,16,85,89",1,,7543,2022-06-26 18:07:39,155956
62b44656961e0d774168ef36,ma_choice_v4_movies_pilot4,62b44656961e0d774168ef36,1,1,-1,-1,"awesome soundtrack,good action,funny,visual,great acting,dialogue,romantic,plot,artistic","61,31,52,30,70,83,33,17,18","10,0,2,84,46,45,76,42,65",0,,16697,2022-06-26 18:07:44,155957
61087340524af628c86bc38c,ma_choice_v4_movies_pilot4,61087340524af628c86bc38c,83,0,-1,-1,"dialogue,romantic,plot,great acting,awesome soundtrack,artistic,funny,good action,visual","54,73,51,18,4,1,74,59,13","27,13,9,53,28,45,7,4,75",0,,10727,2022-06-26 18:07:51,155958
62b44656961e0d774168ef36,ma_choice_v4_movies_pilot4,62b44656961e0d774168ef36,2,1,-1,-1,"artistic,plot,good action,awesome soundtrack,funny,dialogue,romantic,visual,great acting","10,0,9,51,26,41,39,35,18","40,30,39,4,1,64,2,14,44",1,,14505,2022-06-26 18:07:59,155959
61087340524af628c86bc38c,ma_choice_v4_movies_pilot4,61087340524af628c86bc38c,84,0,-1,-1,"awesome soundtrack,romantic,dialogue,plot,good action,visual,funny,artistic,great acting","47,75,79,53,25,91,0,55,70","4,1,49,19,0,40,34,16,45",0,,7750,2022-06-26 18:07:59,155960
61087340524af628c86bc38c,ma_choice_v4_movies_pilot4,61087340524af628c86bc38c,85,0,-1,-1,"awesome soundtrack,funny,good action,plot,visual,romantic,dialogue,great acting,artistic","43,36,0,39,85,41,85,43,68","72,13,23,15,13,68,52,88,12",0,,8038,2022-06-26 18:08:09,155961
62b44656961e0d774168ef36,ma_choice_v4_movies_pilot4,62b44656961e0d774168ef36,3,1,-1,-1,"great acting,good action,romantic,plot,artistic,funny,awesome soundtrack,visual,dialogue","61,0,23,31,59,55,31,57,31","35,32,0,58,32,3,86,84,72",1,,10900,2022-06-26 18:08:11,155962
61087340524af628c86bc38c,ma_choice_v4_movies_pilot4,61087340524af628c86bc38c,86,0,-1,-1,"funny,plot,dialogue,awesome soundtrack,good action,visual,great acting,artistic,romantic","1,24,38,17,1,12,29,2,16","68,58,95,99,103,93,69,29,48",1,,8397,2022-06-26 18:08:18,155963
61087340524af628c86bc38c,ma_choice_v4_movies_pilot4,61087340524af628c86bc38c,87,0,-1,-1,"good action,awesome soundtrack,great acting,dialogue,artistic,funny,plot,visual,romantic","102,87,78,94,36,41,40,97,17","0,30,48,52,7,5,16,53,45",0,,7717,2022-06-26 18:08:27,155964
62b44656961e0d774168ef36,ma_choice_v4_movies_pilot4,62b44656961e0d774168ef36,4,1,-1,-1,"dialogue,great acting,artistic,good action,funny,romantic,plot,awesome soundtrack,visual","44,52,11,40,75,33,41,16,27","83,75,52,6,8,10,3,80,95",0,,21059,2022-06-26 18:08:33,155965
61087340524af628c86bc38c,ma_choice_v4_movies_pilot4,61087340524af628c86bc38c,88,0,-1,-1,"dialogue,good action,visual,awesome soundtrack,plot,artistic,funny,great acting,romantic","75,2,25,51,51,36,12,79,69","51,68,67,80,24,4,70,42,14",1,,7771,2022-06-26 18:08:35,155966
61087340524af628c86bc38c,ma_choice_v4_movies_pilot4,61087340524af628c86bc38c,89,0,-1,-1,"good action,awesome soundtrack,great acting,dialogue,romantic,artistic,plot,funny,visual","4,42,37,88,48,47,21,72,25","46,8,63,41,90,8,41,20,4",0,,8040,2022-06-26 18:08:45,155967
61087340524af628c86bc38c,ma_choice_v4_movies_pilot4,61087340524af628c86bc38c,90,0,-1,-1,"plot,romantic,dialogue,artistic,great acting,visual,good action,awesome soundtrack,funny","46,75,12,5,42,55,0,10,64","2,1,61,28,21,88,20,32,1",0,,10899,2022-06-26 18:08:56,155968
62b44656961e0d774168ef36,ma_choice_v4_movies_pilot4,62b44656961e0d774168ef36,5,1,-1,-1,"good action,funny,visual,dialogue,plot,romantic,awesome soundtrack,great acting,artistic","4,61,21,74,58,73,24,55,23","72,4,73,32,35,8,55,15,1",0,,28564,2022-06-26 18:09:03,155969
61087340524af628c86bc38c,ma_choice_v4_movies_pilot4,61087340524af628c86bc38c,91,0,-1,-1,"funny,artistic,dialogue,awesome soundtrack,romantic,plot,great acting,visual,good action","32,8,18,12,74,35,25,11,29","2,46,63,33,2,5,48,41,0",1,,10448,2022-06-26 18:09:08,155970
61087340524af628c86bc38c,ma_choice_v4_movies_pilot4,61087340524af628c86bc38c,92,0,-1,-1,"good action,funny,awesome soundtrack,dialogue,great acting,visual,romantic,artistic,plot","60,73,23,13,23,16,9,18,16","0,1,1,51,60,88,58,50,48",1,,7724,2022-06-26 18:09:17,155971
62b44656961e0d774168ef36,ma_choice_v4_movies_pilot4,62b44656961e0d774168ef36,6,1,-1,-1,"great acting,awesome soundtrack,visual,artistic,romantic,dialogue,good action,plot,funny","92,75,80,48,53,95,42,75,64","26,25,23,18,10,62,0,24,2",0,,19451,2022-06-26 18:09:24,155972
61087340524af628c86bc38c,ma_choice_v4_movies_pilot4,61087340524af628c86bc38c,93,0,-1,-1,"visual,good action,funny,great acting,plot,awesome soundtrack,romantic,dialogue,artistic","31,32,0,56,6,68,13,64,2","5,2,45,30,41,14,45,39,49",1,,7878,2022-06-26 18:09:25,155973
61087340524af628c86bc38c,ma_choice_v4_movies_pilot4,61087340524af628c86bc38c,94,0,-1,-1,"visual,awesome soundtrack,great acting,good action,plot,romantic,artistic,dialogue,funny","12,3,35,2,15,23,10,13,62","95,34,14,93,69,1,33,75,18",1,,8103,2022-06-26 18:09:35,155974
61087340524af628c86bc38c,ma_choice_v4_movies_pilot4,61087340524af628c86bc38c,95,0,-1,-1,"plot,dialogue,great acting,good action,romantic,funny,visual,artistic,awesome soundtrack","45,36,76,0,45,0,91,77,27","23,57,53,26,24,86,34,25,65",1,,9496,2022-06-26 18:09:45,155975
61087340524af628c86bc38c,ma_choice_v4_movies_pilot4,61087340524af628c86bc38c,96,0,-1,-1,"artistic,awesome soundtrack,romantic,visual,great acting,plot,funny,good action,dialogue","5,80,76,9,50,37,70,70,29","27,33,13,53,79,58,31,4,80",0,,7712,2022-06-26 18:09:54,155976
61087340524af628c86bc38c,ma_choice_v4_movies_pilot4,61087340524af628c86bc38c,97,0,-1,-1,"visual,plot,awesome soundtrack,dialogue,romantic,funny,great acting,artistic,good action","1,0,61,9,68,44,42,24,4","52,47,31,64,1,9,20,4,81",0,,9416,2022-06-26 18:10:04,155977
61087340524af628c86bc38c,ma_choice_v4_movies_pilot4,61087340524af628c86bc38c,98,0,-1,-1,"awesome soundtrack,artistic,funny,romantic,plot,good action,visual,dialogue,great acting","50,4,23,2,23,100,45,76,52","4,47,1,25,3,0,7,5,29",0,,7549,2022-06-26 18:10:13,155978
61087340524af628c86bc38c,ma_choice_v4_movies_pilot4,61087340524af628c86bc38c,99,0,-1,-1,"artistic,awesome soundtrack,plot,dialogue,good action,visual,great acting,funny,romantic","2,36,51,93,95,55,19,35,2","26,72,28,63,11,20,61,69,64",1,,7588,2022-06-26 18:10:21,155979
6202985fef1cb18a1337c29c,ma_choice_v4_movies_pilot4,6202985fef1cb18a1337c29c,0,1,-1,-1,"visual,artistic,romantic,dialogue,plot,good action,awesome soundtrack,funny,great acting","21,23,73,74,58,4,24,61,55","73,1,8,32,35,72,55,4,15",0,,15795,2022-06-26 18:11:44,155980
6202985fef1cb18a1337c29c,ma_choice_v4_movies_pilot4,6202985fef1cb18a1337c29c,1,1,-1,-1,"artistic,romantic,great acting,plot,funny,awesome soundtrack,dialogue,visual,good action","67,32,35,2,1,6,18,58,2","8,9,12,54,46,31,42,10,87",1,,11354,2022-06-26 18:11:56,155981
628280cc9a101abd75335445,ma_choice_v4_movies_pilot4,628280cc9a101abd75335445,0,1,-1,-1,"funny,romantic,awesome soundtrack,visual,good action,great acting,dialogue,plot,artistic","52,33,61,30,31,70,83,17,18","2,76,10,84,0,46,45,42,65",1,,18703,2022-06-26 18:12:02,155982
6202985fef1cb18a1337c29c,ma_choice_v4_movies_pilot4,6202985fef1cb18a1337c29c,2,1,-1,-1,"visual,great acting,funny,dialogue,awesome soundtrack,plot,romantic,artistic,good action","60,69,24,94,60,27,52,36,34","91,34,51,66,29,59,15,91,0",0,,17758,2022-06-26 18:12:15,155983
628280cc9a101abd75335445,ma_choice_v4_movies_pilot4,628280cc9a101abd75335445,1,1,-1,-1,"great acting,visual,good action,awesome soundtrack,artistic,dialogue,plot,romantic,funny","18,35,9,51,10,41,0,39,26","44,14,39,4,40,64,30,2,1",1,,12736,2022-06-26 18:12:16,155984
628280cc9a101abd75335445,ma_choice_v4_movies_pilot4,628280cc9a101abd75335445,2,1,-1,-1,"artistic,visual,good action,awesome soundtrack,plot,funny,dialogue,romantic,great acting","59,57,0,31,31,55,31,23,61","32,84,32,86,58,3,72,0,35",1,,8697,2022-06-26 18:12:26,155985
6202985fef1cb18a1337c29c,ma_choice_v4_movies_pilot4,6202985fef1cb18a1337c29c,3,1,-1,-1,"plot,visual,dialogue,funny,good action,awesome soundtrack,artistic,great acting,romantic","0,38,60,37,2,41,5,10,1","24,3,31,16,39,7,32,38,27",0,,10268,2022-06-26 18:12:26,155986
6202985fef1cb18a1337c29c,ma_choice_v4_movies_pilot4,6202985fef1cb18a1337c29c,4,1,-1,-1,"visual,good action,awesome soundtrack,funny,great acting,romantic,plot,dialogue,artistic","14,39,4,1,44,2,30,64,40","35,9,51,26,18,39,0,41,10",0,,12710,2022-06-26 18:12:40,155987
628280cc9a101abd75335445,ma_choice_v4_movies_pilot4,628280cc9a101abd75335445,3,1,-1,-1,"plot,funny,dialogue,visual,good action,great acting,artistic,romantic,awesome soundtrack","59,51,66,91,0,34,91,15,29","27,24,94,60,34,69,36,52,60",1,,16031,2022-06-26 18:12:43,155988
628280cc9a101abd75335445,ma_choice_v4_movies_pilot4,628280cc9a101abd75335445,4,1,-1,-1,"artistic,awesome soundtrack,dialogue,good action,funny,great acting,plot,romantic,visual","48,75,95,42,64,92,75,53,80","18,25,62,0,2,26,24,10,23",0,,8550,2022-06-26 18:12:52,155989
6202985fef1cb18a1337c29c,ma_choice_v4_movies_pilot4,6202985fef1cb18a1337c29c,5,1,-1,-1,"great acting,awesome soundtrack,plot,funny,romantic,dialogue,visual,good action,artistic","61,31,31,55,23,31,57,0,59","35,86,58,3,0,72,84,32,32",1,,11185,2022-06-26 18:12:52,155990
628280cc9a101abd75335445,ma_choice_v4_movies_pilot4,628280cc9a101abd75335445,5,1,-1,-1,"dialogue,visual,plot,good action,romantic,awesome soundtrack,great acting,artistic,funny","83,95,3,6,10,80,75,52,8","44,27,41,40,33,16,52,11,75",0,,8430,2022-06-26 18:13:02,155991
6202985fef1cb18a1337c29c,ma_choice_v4_movies_pilot4,6202985fef1cb18a1337c29c,6,1,-1,-1,"artistic,dialogue,plot,good action,visual,romantic,funny,awesome soundtrack,great acting","57,76,25,31,74,30,45,75,75","19,6,2,0,30,62,20,39,35",0,,8718,2022-06-26 18:13:02,155992
628280cc9a101abd75335445,ma_choice_v4_movies_pilot4,628280cc9a101abd75335445,6,1,-1,-1,"plot,artistic,funny,romantic,awesome soundtrack,dialogue,good action,great acting,visual","2,67,1,32,6,18,2,35,58","54,8,46,9,31,42,87,12,10",1,,7964,2022-06-26 18:13:11,155993
6202985fef1cb18a1337c29c,ma_choice_v4_movies_pilot4,6202985fef1cb18a1337c29c,7,1,-1,-1,"visual,plot,funny,artistic,great acting,good action,romantic,dialogue,awesome soundtrack","84,42,2,65,46,0,76,45,10","30,17,52,18,70,31,33,83,61",0,,17138,2022-06-26 18:13:20,155994
628280cc9a101abd75335445,ma_choice_v4_movies_pilot4,628280cc9a101abd75335445,7,1,-1,-1,"good action,plot,dialogue,funny,visual,romantic,artistic,great acting,awesome soundtrack","39,24,31,16,3,27,32,38,7","2,0,60,37,38,1,5,10,41",1,,10000,2022-06-26 18:13:22,155995
6202985fef1cb18a1337c29c,ma_choice_v4_movies_pilot4,6202985fef1cb18a1337c29c,8,1,-1,-1,"funny,good action,artistic,romantic,plot,great acting,dialogue,visual,awesome soundtrack","64,42,48,53,75,92,95,80,75","2,0,18,10,24,26,62,23,25",0,,7600,2022-06-26 18:13:29,155996
628280cc9a101abd75335445,ma_choice_v4_movies_pilot4,628280cc9a101abd75335445,8,1,-1,-1,"good action,awesome soundtrack,great acting,funny,plot,visual,dialogue,artistic,romantic","72,55,15,4,35,73,32,1,8","4,24,55,61,58,21,74,23,73",1,,11587,2022-06-26 18:13:34,155997
6202985fef1cb18a1337c29c,ma_choice_v4_movies_pilot4,6202985fef1cb18a1337c29c,9,1,-1,-1,"awesome soundtrack,good action,great acting,funny,romantic,artistic,dialogue,visual,plot","80,6,75,8,10,52,83,95,3","16,40,52,75,33,11,44,27,41",0,,7633,2022-06-26 18:13:37,155998
628280cc9a101abd75335445,ma_choice_v4_movies_pilot4,628280cc9a101abd75335445,9,1,-1,-1,"great acting,visual,plot,romantic,good action,funny,artistic,awesome soundtrack,dialogue","35,30,2,62,0,20,19,39,6","75,74,25,30,31,45,57,75,76",1,,8958,2022-06-26 18:13:44,155999
6202985fef1cb18a1337c29c,ma_choice_v4_movies_pilot4,6202985fef1cb18a1337c29c,0,0,-1,-1,"funny,great acting,artistic,visual,dialogue,good action,plot,awesome soundtrack,romantic","42,83,56,67,85,0,7,47,23","13,62,13,7,57,25,40,19,51",0,,7537,2022-06-26 18:13:58,156000
6202985fef1cb18a1337c29c,ma_choice_v4_movies_pilot4,6202985fef1cb18a1337c29c,1,0,-1,-1,"dialogue,plot,good action,awesome soundtrack,visual,great acting,romantic,funny,artistic","21,28,23,6,46,77,74,59,46","50,52,2,81,77,32,10,2,21",1,,8562,2022-06-26 18:14:08,156001
628280cc9a101abd75335445,ma_choice_v4_movies_pilot4,628280cc9a101abd75335445,0,0,-1,-1,"romantic,plot,funny,visual,good action,dialogue,great acting,awesome soundtrack,artistic","7,17,52,9,88,72,30,30,17","48,38,0,72,0,38,81,4,42",1,,7803,2022-06-26 18:14:12,156002
628280cc9a101abd75335445,ma_choice_v4_movies_pilot4,628280cc9a101abd75335445,1,0,-1,-1,"romantic,great acting,funny,dialogue,good action,visual,artistic,awesome soundtrack,plot","2,19,35,93,95,55,2,36,51","64,61,69,63,11,20,26,72,28",1,,8106,2022-06-26 18:14:22,156003
6202985fef1cb18a1337c29c,ma_choice_v4_movies_pilot4,6202985fef1cb18a1337c29c,2,0,-1,-1,"funny,plot,good action,great acting,visual,awesome soundtrack,artistic,romantic,dialogue","52,42,0,76,11,16,41,85,35","11,21,29,36,53,37,5,15,68",0,,15385,2022-06-26 18:14:24,156004
628280cc9a101abd75335445,ma_choice_v4_movies_pilot4,628280cc9a101abd75335445,2,0,-1,-1,"great acting,awesome soundtrack,romantic,funny,visual,dialogue,good action,plot,artistic","24,50,0,7,86,28,5,67,46","65,24,23,78,56,76,36,41,9",1,,8147,2022-06-26 18:14:31,156005
6202985fef1cb18a1337c29c,ma_choice_v4_movies_pilot4,6202985fef1cb18a1337c29c,3,0,-1,-1,"good action,funny,plot,dialogue,visual,romantic,great acting,awesome soundtrack,artistic","20,51,20,43,39,55,65,55,25","49,5,65,76,96,18,37,14,72",1,,9691,2022-06-26 18:14:35,156006
628280cc9a101abd75335445,ma_choice_v4_movies_pilot4,628280cc9a101abd75335445,3,0,-1,-1,"funny,awesome soundtrack,good action,romantic,great acting,visual,dialogue,plot,artistic","8,46,2,64,81,6,25,43,25","64,19,41,19,17,45,87,23,1",1,,8095,2022-06-26 18:14:40,156007
6202985fef1cb18a1337c29c,ma_choice_v4_movies_pilot4,6202985fef1cb18a1337c29c,4,0,-1,-1,"funny,plot,romantic,visual,good action,dialogue,great acting,awesome soundtrack,artistic","58,61,85,53,16,89,60,42,5","1,40,2,4,39,31,32,76,37",0,,7518,2022-06-26 18:14:43,156008
628280cc9a101abd75335445,ma_choice_v4_movies_pilot4,628280cc9a101abd75335445,4,0,-1,-1,"dialogue,funny,romantic,artistic,awesome soundtrack,visual,plot,great acting,good action","15,61,86,45,28,10,37,27,34","66,1,13,4,3,57,1,56,1",0,,8099,2022-06-26 18:14:49,156009
6202985fef1cb18a1337c29c,ma_choice_v4_movies_pilot4,6202985fef1cb18a1337c29c,5,0,-1,-1,"visual,great acting,artistic,good action,romantic,awesome soundtrack,plot,dialogue,funny","47,22,2,53,2,74,37,70,16","23,47,50,1,80,13,11,93,40",1,,7430,2022-06-26 18:14:52,156010
628280cc9a101abd75335445,ma_choice_v4_movies_pilot4,628280cc9a101abd75335445,5,0,-1,-1,"plot,awesome soundtrack,visual,good action,great acting,dialogue,artistic,funny,romantic","60,68,64,66,56,93,10,53,26","1,14,92,0,76,20,78,1,4",0,,8120,2022-06-26 18:14:58,156011
6202985fef1cb18a1337c29c,ma_choice_v4_movies_pilot4,6202985fef1cb18a1337c29c,6,0,-1,-1,"funny,dialogue,good action,romantic,plot,visual,great acting,awesome soundtrack,artistic","70,95,9,15,45,45,68,64,55","14,42,34,37,8,14,39,8,11",0,,7827,2022-06-26 18:15:00,156012
628280cc9a101abd75335445,ma_choice_v4_movies_pilot4,628280cc9a101abd75335445,6,0,-1,-1,"dialogue,visual,awesome soundtrack,great acting,good action,romantic,plot,funny,artistic","36,6,48,38,53,41,3,69,1","66,88,14,6,80,14,37,1,26",1,,13467,2022-06-26 18:15:13,156013
6202985fef1cb18a1337c29c,ma_choice_v4_movies_pilot4,6202985fef1cb18a1337c29c,7,0,-1,-1,"funny,dialogue,awesome soundtrack,great acting,visual,artistic,romantic,plot,good action","1,77,18,53,26,66,1,1,0","61,30,43,28,46,5,55,50,95",1,,18640,2022-06-26 18:15:20,156014
628280cc9a101abd75335445,ma_choice_v4_movies_pilot4,628280cc9a101abd75335445,7,0,-1,-1,"good action,plot,artistic,awesome soundtrack,dialogue,visual,great acting,funny,romantic","32,48,2,18,27,9,23,80,93","0,2,42,59,68,48,48,7,56",1,,10575,2022-06-26 18:15:24,156015
6202985fef1cb18a1337c29c,ma_choice_v4_movies_pilot4,6202985fef1cb18a1337c29c,8,0,-1,-1,"dialogue,funny,visual,awesome soundtrack,great acting,artistic,plot,good action,romantic","68,61,29,68,32,38,37,41,63","18,0,70,15,67,15,3,0,29",0,,7448,2022-06-26 18:15:29,156016
628280cc9a101abd75335445,ma_choice_v4_movies_pilot4,628280cc9a101abd75335445,8,0,-1,-1,"good action,funny,romantic,visual,artistic,great acting,dialogue,awesome soundtrack,plot","0,5,45,53,7,48,52,30,16","102,41,17,97,36,78,94,87,40",1,,9105,2022-06-26 18:15:34,156017
6202985fef1cb18a1337c29c,ma_choice_v4_movies_pilot4,6202985fef1cb18a1337c29c,9,0,-1,-1,"funny,good action,plot,awesome soundtrack,romantic,dialogue,artistic,great acting,visual","9,81,47,31,1,64,4,20,52","44,4,0,61,68,9,24,42,1",0,,7578,2022-06-26 18:15:37,156018
628280cc9a101abd75335445,ma_choice_v4_movies_pilot4,628280cc9a101abd75335445,9,0,-1,-1,"funny,awesome soundtrack,dialogue,artistic,plot,romantic,great acting,visual,good action","71,31,58,3,23,24,13,25,45","7,63,5,38,1,2,37,2,0",0,,8378,2022-06-26 18:15:44,156019
6202985fef1cb18a1337c29c,ma_choice_v4_movies_pilot4,6202985fef1cb18a1337c29c,10,0,-1,-1,"great acting,good action,awesome soundtrack,artistic,visual,dialogue,funny,plot,romantic","37,0,63,38,2,5,7,1,2","13,45,31,3,25,58,71,23,24",1,,7498,2022-06-26 18:15:46,156020
6202985fef1cb18a1337c29c,ma_choice_v4_movies_pilot4,6202985fef1cb18a1337c29c,11,0,-1,-1,"awesome soundtrack,funny,romantic,good action,visual,plot,great acting,dialogue,artistic","66,85,27,17,33,42,59,87,33","42,10,0,92,66,71,18,46,4",0,,7778,2022-06-26 18:15:54,156021
628280cc9a101abd75335445,ma_choice_v4_movies_pilot4,628280cc9a101abd75335445,10,0,-1,-1,"dialogue,awesome soundtrack,good action,artistic,great acting,romantic,funny,plot,visual","51,1,0,50,60,58,1,48,88","13,23,60,18,23,9,73,16,16",0,,10731,2022-06-26 18:15:55,156022
6202985fef1cb18a1337c29c,ma_choice_v4_movies_pilot4,6202985fef1cb18a1337c29c,12,0,-1,-1,"plot,dialogue,good action,great acting,romantic,visual,artistic,awesome soundtrack,funny","30,9,26,27,23,10,26,15,66","2,58,5,59,1,87,48,70,1",1,,7500,2022-06-26 18:16:03,156023
628280cc9a101abd75335445,ma_choice_v4_movies_pilot4,628280cc9a101abd75335445,11,0,-1,-1,"great acting,dialogue,good action,artistic,funny,plot,awesome soundtrack,romantic,visual","32,16,0,34,2,7,12,6,14","60,77,93,6,47,43,47,45,61",1,,8402,2022-06-26 18:16:05,156024
6202985fef1cb18a1337c29c,ma_choice_v4_movies_pilot4,6202985fef1cb18a1337c29c,13,0,-1,-1,"great acting,good action,romantic,visual,awesome soundtrack,funny,artistic,plot,dialogue","60,93,45,61,47,47,6,43,77","32,0,6,14,12,2,34,7,16",0,,7484,2022-06-26 18:16:11,156025
628280cc9a101abd75335445,ma_choice_v4_movies_pilot4,628280cc9a101abd75335445,12,0,-1,-1,"awesome soundtrack,good action,dialogue,plot,visual,great acting,funny,romantic,artistic","88,29,79,2,34,61,31,43,3","21,0,14,23,58,22,4,3,30",0,,9706,2022-06-26 18:16:16,156026
5fb5e070ad83631f08d83322,ma_choice_v4_movies_pilot4,5fb5e070ad83631f08d83322,0,1,-1,-1,"romantic,plot,funny,good action,dialogue,great acting,awesome soundtrack,artistic,visual","10,24,2,0,62,26,25,18,23","53,75,64,42,95,92,75,48,80",1,,9444,2022-06-26 18:16:17,156027
6202985fef1cb18a1337c29c,ma_choice_v4_movies_pilot4,6202985fef1cb18a1337c29c,14,0,-1,-1,"awesome soundtrack,artistic,good action,funny,plot,romantic,great acting,visual,dialogue","7,7,0,1,10,19,41,13,59","64,58,71,37,55,81,69,40,9",1,,7475,2022-06-26 18:16:20,156028
628280cc9a101abd75335445,ma_choice_v4_movies_pilot4,628280cc9a101abd75335445,13,0,-1,-1,"dialogue,awesome soundtrack,plot,great acting,romantic,artistic,good action,visual,funny","44,26,17,72,34,43,0,26,1","22,6,38,42,58,6,30,53,69",1,,8458,2022-06-26 18:16:25,156029
6202985fef1cb18a1337c29c,ma_choice_v4_movies_pilot4,6202985fef1cb18a1337c29c,15,0,-1,-1,"artistic,awesome soundtrack,plot,funny,visual,good action,dialogue,romantic,great acting","16,4,19,34,40,0,49,1,45","55,47,53,0,91,25,79,75,70",1,,7495,2022-06-26 18:16:28,156030
628280cc9a101abd75335445,ma_choice_v4_movies_pilot4,628280cc9a101abd75335445,14,0,-1,-1,"good action,visual,funny,plot,artistic,awesome soundtrack,great acting,dialogue,romantic","0,54,2,34,63,8,74,43,0","44,34,33,13,37,31,46,74,22",1,,8338,2022-06-26 18:16:34,156031
5fb5e070ad83631f08d83322,ma_choice_v4_movies_pilot4,5fb5e070ad83631f08d83322,1,1,-1,-1,"awesome soundtrack,good action,romantic,funny,dialogue,plot,artistic,great acting,visual","29,0,15,51,66,59,91,34,91","60,34,52,24,94,27,36,69,60",1,,19270,2022-06-26 18:16:37,156032
6202985fef1cb18a1337c29c,ma_choice_v4_movies_pilot4,6202985fef1cb18a1337c29c,16,0,-1,-1,"dialogue,funny,visual,good action,romantic,artistic,awesome soundtrack,plot,great acting","32,75,7,90,65,41,64,19,65","57,5,44,0,44,2,2,49,23",0,,8449,2022-06-26 18:16:38,156033
6202985fef1cb18a1337c29c,ma_choice_v4_movies_pilot4,6202985fef1cb18a1337c29c,17,0,-1,-1,"funny,romantic,visual,plot,good action,awesome soundtrack,dialogue,great acting,artistic","54,1,77,3,42,90,76,57,28","2,72,49,40,0,57,48,13,3",1,,9565,2022-06-26 18:16:48,156034
5fb5e070ad83631f08d83322,ma_choice_v4_movies_pilot4,5fb5e070ad83631f08d83322,2,1,-1,-1,"good action,funny,visual,artistic,romantic,awesome soundtrack,plot,dialogue,great acting","6,8,95,52,10,80,3,83,75","40,75,27,11,33,16,41,44,52",0,,12201,2022-06-26 18:16:51,156035
628280cc9a101abd75335445,ma_choice_v4_movies_pilot4,628280cc9a101abd75335445,15,0,-1,-1,"visual,good action,awesome soundtrack,funny,artistic,great acting,dialogue,romantic,plot","74,0,2,0,7,40,21,44,55","47,32,55,83,34,70,74,7,19",1,,16220,2022-06-26 18:16:52,156036
6100d7fb6ea88beb0124ef98,ma_choice_v4_movies_pilot4,6100d7fb6ea88beb0124ef98,0,1,-1,-1,"artistic,dialogue,funny,romantic,good action,awesome soundtrack,visual,plot,great acting","36,94,24,52,34,60,60,27,69","91,66,51,15,0,29,91,59,34",1,,28850,2022-06-26 18:16:58,156037
6202985fef1cb18a1337c29c,ma_choice_v4_movies_pilot4,6202985fef1cb18a1337c29c,18,0,-1,-1,"artistic,plot,visual,great acting,dialogue,romantic,awesome soundtrack,good action,funny","6,38,53,42,22,58,6,30,69","43,17,26,72,44,34,26,0,1",0,,13592,2022-06-26 18:17:03,156038
628280cc9a101abd75335445,ma_choice_v4_movies_pilot4,628280cc9a101abd75335445,16,0,-1,-1,"visual,artistic,awesome soundtrack,dialogue,great acting,good action,plot,funny,romantic","46,46,6,21,77,23,28,59,74","77,21,81,50,32,2,52,2,10",0,,12705,2022-06-26 18:17:05,156039
5fb5e070ad83631f08d83322,ma_choice_v4_movies_pilot4,5fb5e070ad83631f08d83322,3,1,-1,-1,"romantic,visual,great acting,plot,dialogue,artistic,funny,awesome soundtrack,good action","9,10,12,54,42,8,46,31,87","32,58,35,2,18,67,1,6,2",0,,16830,2022-06-26 18:17:08,156040
6202985fef1cb18a1337c29c,ma_choice_v4_movies_pilot4,6202985fef1cb18a1337c29c,19,0,-1,-1,"funny,awesome soundtrack,dialogue,romantic,good action,plot,artistic,great acting,visual","32,11,39,15,0,34,42,27,61","65,75,62,51,38,7,14,64,38",1,,7487,2022-06-26 18:17:12,156041
628280cc9a101abd75335445,ma_choice_v4_movies_pilot4,628280cc9a101abd75335445,17,0,-1,-1,"good action,artistic,great acting,dialogue,funny,visual,plot,awesome soundtrack,romantic","5,36,28,48,6,65,13,4,5","82,3,50,13,52,29,59,58,96",1,,8014,2022-06-26 18:17:14,156042
6100d7fb6ea88beb0124ef98,ma_choice_v4_movies_pilot4,6100d7fb6ea88beb0124ef98,1,1,-1,-1,"artistic,plot,awesome soundtrack,romantic,visual,good action,funny,great acting,dialogue","18,24,25,10,23,0,2,26,62","48,75,75,53,80,42,64,92,95",1,,19429,2022-06-26 18:17:18,156043
5fb5e070ad83631f08d83322,ma_choice_v4_movies_pilot4,5fb5e070ad83631f08d83322,4,1,-1,-1,"great acting,visual,dialogue,awesome soundtrack,artistic,romantic,good action,funny,plot","15,73,32,55,1,8,72,4,35","55,21,74,24,23,73,4,61,58",1,,9280,2022-06-26 18:17:19,156044
6202985fef1cb18a1337c29c,ma_choice_v4_movies_pilot4,6202985fef1cb18a1337c29c,20,0,-1,-1,"awesome soundtrack,plot,romantic,artistic,great acting,good action,funny,dialogue,visual","18,20,59,28,65,0,5,64,40","51,40,1,5,31,86,58,44,16",1,,7518,2022-06-26 18:17:20,156045
628280cc9a101abd75335445,ma_choice_v4_movies_pilot4,628280cc9a101abd75335445,18,0,-1,-1,"good action,dialogue,great acting,artistic,awesome soundtrack,plot,visual,romantic,funny","4,61,62,39,15,1,29,32,3","32,33,34,6,39,53,7,86,25",1,,10559,2022-06-26 18:17:26,156046
6202985fef1cb18a1337c29c,ma_choice_v4_movies_pilot4,6202985fef1cb18a1337c29c,21,0,-1,-1,"funny,plot,dialogue,awesome soundtrack,visual,romantic,artistic,great acting,good action","70,24,51,80,67,14,4,42,68","12,51,75,51,25,69,36,79,2",1,,7718,2022-06-26 18:17:29,156047
5fb5e070ad83631f08d83322,ma_choice_v4_movies_pilot4,5fb5e070ad83631f08d83322,5,1,-1,-1,"funny,plot,good action,dialogue,visual,romantic,artistic,great acting,awesome soundtrack","2,42,0,45,84,76,65,46,10","52,17,31,83,30,33,18,70,61",0,,11946,2022-06-26 18:17:32,156048
6202985fef1cb18a1337c29c,ma_choice_v4_movies_pilot4,6202985fef1cb18a1337c29c,22,0,-1,-1,"great acting,romantic,plot,artistic,funny,awesome soundtrack,good action,visual,dialogue","19,68,22,2,70,18,57,6,23","79,37,45,24,31,60,0,31,80",1,,7563,2022-06-26 18:17:37,156049
628280cc9a101abd75335445,ma_choice_v4_movies_pilot4,628280cc9a101abd75335445,19,0,-1,-1,"visual,romantic,plot,good action,awesome soundtrack,artistic,funny,great acting,dialogue","26,85,7,6,76,31,44,74,86","52,11,35,65,10,9,7,49,51",0,,12648,2022-06-26 18:17:40,156050
6100d7fb6ea88beb0124ef98,ma_choice_v4_movies_pilot4,6100d7fb6ea88beb0124ef98,2,1,-1,-1,"romantic,good action,plot,visual,awesome soundtrack,funny,dialogue,great acting,artistic","0,32,58,84,86,3,72,35,32","23,0,31,57,31,55,31,61,59",1,,21525,2022-06-26 18:17:41,156051
6202985fef1cb18a1337c29c,ma_choice_v4_movies_pilot4,6202985fef1cb18a1337c29c,23,0,-1,-1,"dialogue,plot,funny,awesome soundtrack,good action,artistic,visual,great acting,romantic","57,23,86,65,26,25,34,53,24","36,45,0,27,0,77,91,76,45",0,,7449,2022-06-26 18:17:46,156052
5fb5e070ad83631f08d83322,ma_choice_v4_movies_pilot4,5fb5e070ad83631f08d83322,6,1,-1,-1,"plot,romantic,good action,great acting,visual,artistic,dialogue,awesome soundtrack,funny","30,2,39,44,14,40,64,4,1","0,39,9,18,35,10,41,51,26",1,,16470,2022-06-26 18:17:49,156053
628280cc9a101abd75335445,ma_choice_v4_movies_pilot4,628280cc9a101abd75335445,20,0,-1,-1,"great acting,artistic,plot,visual,dialogue,awesome soundtrack,romantic,funny,good action","47,8,49,37,36,45,28,82,74","6,37,3,73,7,14,2,3,0",0,,9913,2022-06-26 18:17:51,156054
6202985fef1cb18a1337c29c,ma_choice_v4_movies_pilot4,6202985fef1cb18a1337c29c,24,0,-1,-1,"plot,romantic,visual,funny,artistic,dialogue,awesome soundtrack,good action,great acting","1,0,3,19,34,22,10,7,45","47,35,50,68,6,56,50,87,24",1,,7468,2022-06-26 18:17:54,156055
6100d7fb6ea88beb0124ef98,ma_choice_v4_movies_pilot4,6100d7fb6ea88beb0124ef98,3,1,-1,-1,"dialogue,awesome soundtrack,plot,artistic,good action,visual,great acting,romantic,funny","6,39,2,19,0,30,35,62,20","76,75,25,57,31,74,75,30,45",1,,15018,2022-06-26 18:17:57,156056
5fb5e070ad83631f08d83322,ma_choice_v4_movies_pilot4,5fb5e070ad83631f08d83322,7,1,-1,-1,"great acting,romantic,artistic,dialogue,plot,awesome soundtrack,funny,good action,visual","35,0,32,72,58,86,3,32,84","61,23,59,31,31,31,55,0,57",0,,11305,2022-06-26 18:18:01,156057
6202985fef1cb18a1337c29c,ma_choice_v4_movies_pilot4,6202985fef1cb18a1337c29c,25,0,-1,-1,"artistic,good action,funny,awesome soundtrack,plot,great acting,visual,dialogue,romantic","36,2,1,3,1,19,4,13,6","7,85,78,40,60,43,47,55,47",1,,7453,2022-06-26 18:18:03,156058
628280cc9a101abd75335445,ma_choice_v4_movies_pilot4,628280cc9a101abd75335445,21,0,-1,-1,"awesome soundtrack,visual,artistic,romantic,dialogue,good action,great acting,funny,plot","40,47,7,47,55,85,43,78,60","3,4,36,6,13,2,19,1,1",0,,11999,2022-06-26 18:18:04,156059
5fb5e070ad83631f08d83322,ma_choice_v4_movies_pilot4,5fb5e070ad83631f08d83322,8,1,-1,-1,"great acting,funny,awesome soundtrack,visual,good action,romantic,plot,dialogue,artistic","35,20,39,30,0,62,2,6,19","75,45,75,74,31,30,25,76,57",1,,8089,2022-06-26 18:18:11,156060
6202985fef1cb18a1337c29c,ma_choice_v4_movies_pilot4,6202985fef1cb18a1337c29c,26,0,-1,-1,"visual,artistic,plot,dialogue,awesome soundtrack,great acting,romantic,good action,funny","9,28,1,64,58,54,22,5,0","37,1,46,13,26,12,0,47,23",0,,7446,2022-06-26 18:18:11,156061
628280cc9a101abd75335445,ma_choice_v4_movies_pilot4,628280cc9a101abd75335445,22,0,-1,-1,"good action,plot,visual,artistic,awesome soundtrack,great acting,dialogue,funny,romantic","78,41,18,8,52,21,74,52,37","20,14,38,52,18,48,6,15,5",0,,8287,2022-06-26 18:18:13,156062
6100d7fb6ea88beb0124ef98,ma_choice_v4_movies_pilot4,6100d7fb6ea88beb0124ef98,4,1,-1,-1,"plot,artistic,romantic,funny,awesome soundtrack,dialogue,great acting,visual,good action","24,32,27,16,7,31,38,3,39","0,5,1,37,41,60,10,38,2",0,,20870,2022-06-26 18:18:19,156063
6202985fef1cb18a1337c29c,ma_choice_v4_movies_pilot4,6202985fef1cb18a1337c29c,27,0,-1,-1,"great acting,awesome soundtrack,romantic,funny,dialogue,artistic,good action,plot,visual","50,20,13,1,25,12,0,1,11","79,84,74,44,86,34,91,58,90",1,,7279,2022-06-26 18:18:19,156064
5fb5e070ad83631f08d83322,ma_choice_v4_movies_pilot4,5fb5e070ad83631f08d83322,9,1,-1,-1,"romantic,great acting,visual,plot,good action,artistic,funny,dialogue,awesome soundtrack","1,10,38,0,2,5,37,60,41","27,38,3,24,39,32,16,31,7",0,,14567,2022-06-26 18:18:26,156065
628280cc9a101abd75335445,ma_choice_v4_movies_pilot4,628280cc9a101abd75335445,23,0,-1,-1,"artistic,funny,plot,visual,good action,dialogue,great acting,awesome soundtrack,romantic","7,10,17,28,19,75,41,35,26","57,56,44,67,83,53,74,75,2",1,,13845,2022-06-26 18:18:28,156066
6202985fef1cb18a1337c29c,ma_choice_v4_movies_pilot4,6202985fef1cb18a1337c29c,28,0,-1,-1,"artistic,plot,visual,good action,awesome soundtrack,dialogue,funny,great acting,romantic","66,21,75,0,26,76,0,66,10","3,49,33,28,56,19,49,36,80",0,,13458,2022-06-26 18:18:34,156067
628280cc9a101abd75335445,ma_choice_v4_movies_pilot4,628280cc9a101abd75335445,24,0,-1,-1,"great acting,artistic,good action,awesome soundtrack,dialogue,romantic,plot,funny,visual","69,29,103,99,95,48,58,68,93","29,2,1,17,38,16,24,1,12",0,,7980,2022-06-26 18:18:37,156068
6202985fef1cb18a1337c29c,ma_choice_v4_movies_pilot4,6202985fef1cb18a1337c29c,29,0,-1,-1,"visual,great acting,romantic,good action,dialogue,plot,artistic,awesome soundtrack,funny","93,75,65,2,76,46,59,59,27","12,54,6,28,38,16,10,13,7",0,,7509,2022-06-26 18:18:42,156069
6100d7fb6ea88beb0124ef98,ma_choice_v4_movies_pilot4,6100d7fb6ea88beb0124ef98,5,1,-1,-1,"visual,great acting,funny,plot,awesome soundtrack,artistic,good action,dialogue,romantic","14,44,1,30,4,40,39,64,2","35,18,26,0,51,10,9,41,39",0,,24802,2022-06-26 18:18:45,156070
628280cc9a101abd75335445,ma_choice_v4_movies_pilot4,628280cc9a101abd75335445,25,0,-1,-1,"plot,dialogue,great acting,funny,visual,artistic,awesome soundtrack,good action,romantic","14,44,54,24,30,55,70,0,17","37,12,33,71,5,7,16,24,90",0,,7970,2022-06-26 18:18:46,156071
6202985fef1cb18a1337c29c,ma_choice_v4_movies_pilot4,6202985fef1cb18a1337c29c,30,0,-1,-1,"romantic,good action,dialogue,funny,plot,visual,awesome soundtrack,artistic,great acting","2,100,76,23,23,45,50,4,52","25,0,5,1,3,7,4,47,29",0,,7627,2022-06-26 18:18:51,156072
5fb5e070ad83631f08d83322,ma_choice_v4_movies_pilot4,5fb5e070ad83631f08d83322,0,0,-1,-1,"awesome soundtrack,visual,good action,dialogue,romantic,great acting,plot,artistic,funny","64,51,89,29,84,35,43,3,65","13,18,0,64,14,63,23,44,0",0,,7512,2022-06-26 18:18:51,156073
628280cc9a101abd75335445,ma_choice_v4_movies_pilot4,628280cc9a101abd75335445,26,0,-1,-1,"dialogue,awesome soundtrack,funny,good action,plot,artistic,romantic,visual,great acting","62,10,1,3,1,10,26,21,78","33,38,25,96,54,31,64,48,43",1,,7854,2022-06-26 18:18:55,156074
6202985fef1cb18a1337c29c,ma_choice_v4_movies_pilot4,6202985fef1cb18a1337c29c,31,0,-1,-1,"artistic,visual,romantic,plot,awesome soundtrack,good action,great acting,funny,dialogue","3,51,84,43,64,89,35,65,29","44,18,14,23,13,0,63,0,64",0,,7557,2022-06-26 18:19:00,156075
5fb5e070ad83631f08d83322,ma_choice_v4_movies_pilot4,5fb5e070ad83631f08d83322,1,0,-1,-1,"visual,dialogue,awesome soundtrack,funny,artistic,plot,romantic,great acting,good action","38,77,19,60,32,55,76,76,5","74,51,54,2,7,32,33,34,27",0,,7715,2022-06-26 18:19:00,156076
6202985fef1cb18a1337c29c,ma_choice_v4_movies_pilot4,6202985fef1cb18a1337c29c,32,0,-1,-1,"funny,artistic,plot,visual,good action,awesome soundtrack,romantic,great acting,dialogue","3,7,32,14,2,9,100,53,5","62,48,53,98,70,54,16,32,74",1,,8135,2022-06-26 18:19:09,156077
628280cc9a101abd75335445,ma_choice_v4_movies_pilot4,628280cc9a101abd75335445,27,0,-1,-1,"funny,great acting,artistic,romantic,visual,dialogue,good action,awesome soundtrack,plot","1,67,2,0,21,38,3,3,12","28,41,33,34,42,13,37,24,37",1,,13427,2022-06-26 18:19:09,156078
5fb5e070ad83631f08d83322,ma_choice_v4_movies_pilot4,5fb5e070ad83631f08d83322,2,0,-1,-1,"visual,plot,great acting,romantic,awesome soundtrack,good action,dialogue,artistic,funny","16,1,23,2,56,17,72,3,0","76,51,88,40,80,64,96,39,29",1,,9809,2022-06-26 18:19:11,156079
6100d7fb6ea88beb0124ef98,ma_choice_v4_movies_pilot4,6100d7fb6ea88beb0124ef98,6,1,-1,-1,"plot,romantic,great acting,good action,dialogue,visual,funny,artistic,awesome soundtrack","58,73,55,4,74,21,61,23,24","35,8,15,72,32,73,4,1,55",1,,27373,2022-06-26 18:19:13,156080
6202985fef1cb18a1337c29c,ma_choice_v4_movies_pilot4,6202985fef1cb18a1337c29c,33,0,-1,-1,"great acting,artistic,plot,visual,dialogue,romantic,good action,awesome soundtrack,funny","14,1,0,69,47,65,43,57,17","80,46,45,17,77,36,0,24,82",1,,7530,2022-06-26 18:19:17,156081
628280cc9a101abd75335445,ma_choice_v4_movies_pilot4,628280cc9a101abd75335445,28,0,-1,-1,"plot,awesome soundtrack,funny,dialogue,great acting,visual,romantic,good action,artistic","73,86,62,49,35,67,9,95,2","35,27,32,79,60,30,61,0,25",0,,8743,2022-06-26 18:19:19,156082
5fb5e070ad83631f08d83322,ma_choice_v4_movies_pilot4,5fb5e070ad83631f08d83322,3,0,-1,-1,"romantic,great acting,dialogue,good action,visual,artistic,plot,awesome soundtrack,funny","75,70,79,25,91,55,53,47,0","1,45,49,0,40,16,19,4,34",0,,8436,2022-06-26 18:19:20,156083
6202985fef1cb18a1337c29c,ma_choice_v4_movies_pilot4,6202985fef1cb18a1337c29c,34,0,-1,-1,"artistic,awesome soundtrack,great acting,dialogue,funny,good action,visual,plot,romantic","3,8,67,49,41,44,26,50,27","64,57,42,88,9,1,75,19,63",1,,7802,2022-06-26 18:19:26,156084
628280cc9a101abd75335445,ma_choice_v4_movies_pilot4,628280cc9a101abd75335445,29,0,-1,-1,"dialogue,good action,visual,awesome soundtrack,plot,romantic,artistic,funny,great acting","57,0,44,2,49,44,2,5,23","32,90,7,64,19,65,41,75,65",1,,8281,2022-06-26 18:19:28,156085
6202985fef1cb18a1337c29c,ma_choice_v4_movies_pilot4,6202985fef1cb18a1337c29c,35,0,-1,-1,"romantic,artistic,visual,funny,good action,awesome soundtrack,dialogue,great acting,plot","48,47,25,72,4,42,88,37,21","90,8,4,20,46,8,41,63,41",0,,7529,2022-06-26 18:19:35,156086
6100d7fb6ea88beb0124ef98,ma_choice_v4_movies_pilot4,6100d7fb6ea88beb0124ef98,7,1,-1,-1,"funny,visual,artistic,great acting,dialogue,good action,plot,romantic,awesome soundtrack","46,10,8,12,42,87,54,9,31","1,58,67,35,18,2,2,32,6",0,,21676,2022-06-26 18:19:36,156087
5fb5e070ad83631f08d83322,ma_choice_v4_movies_pilot4,5fb5e070ad83631f08d83322,4,0,-1,-1,"romantic,awesome soundtrack,great acting,visual,good action,dialogue,funny,plot,artistic","1,31,20,52,81,64,9,47,4","68,61,42,1,4,9,44,0,24",1,,15220,2022-06-26 18:19:36,156088
628280cc9a101abd75335445,ma_choice_v4_movies_pilot4,628280cc9a101abd75335445,30,0,-1,-1,"dialogue,great acting,romantic,awesome soundtrack,artistic,funny,plot,visual,good action","47,41,26,68,24,44,6,37,3","72,62,80,19,4,4,38,4,36",1,,8669,2022-06-26 18:19:38,156089
628280cc9a101abd75335445,ma_choice_v4_movies_pilot4,628280cc9a101abd75335445,31,0,-1,-1,"plot,great acting,funny,visual,artistic,awesome soundtrack,romantic,good action,dialogue","5,48,2,41,46,33,2,0,63","35,25,32,11,8,12,74,29,18",0,,8536,2022-06-26 18:19:47,156090
6202985fef1cb18a1337c29c,ma_choice_v4_movies_pilot4,6202985fef1cb18a1337c29c,36,0,-1,-1,"artistic,awesome soundtrack,great acting,funny,visual,good action,dialogue,romantic,plot","2,28,17,59,23,42,62,4,18","28,4,53,0,45,0,39,44,50",0,,13278,2022-06-26 18:19:49,156091
5fb5e070ad83631f08d83322,ma_choice_v4_movies_pilot4,5fb5e070ad83631f08d83322,5,0,-1,-1,"plot,dialogue,artistic,great acting,romantic,awesome soundtrack,funny,visual,good action","21,76,66,66,10,26,0,75,0","49,19,3,36,80,56,49,33,28",1,,12507,2022-06-26 18:19:50,156092
628280cc9a101abd75335445,ma_choice_v4_movies_pilot4,628280cc9a101abd75335445,32,0,-1,-1,"funny,plot,awesome soundtrack,romantic,artistic,great acting,good action,visual,dialogue","0,53,47,75,55,70,25,91,79","34,19,4,1,16,45,0,40,49",0,,8607,2022-06-26 18:19:57,156093
6202985fef1cb18a1337c29c,ma_choice_v4_movies_pilot4,6202985fef1cb18a1337c29c,37,0,-1,-1,"artistic,plot,visual,great acting,good action,dialogue,romantic,awesome soundtrack,funny","45,28,74,30,4,31,4,57,23","4,7,4,59,40,54,53,16,70",1,,7538,2022-06-26 18:19:57,156094
5fb5e070ad83631f08d83322,ma_choice_v4_movies_pilot4,5fb5e070ad83631f08d83322,6,0,-1,-1,"plot,dialogue,awesome soundtrack,good action,funny,romantic,visual,great acting,artistic","5,63,33,0,2,2,41,48,46","35,18,12,29,32,74,11,25,8",0,,11398,2022-06-26 18:20:02,156095
6100d7fb6ea88beb0124ef98,ma_choice_v4_movies_pilot4,6100d7fb6ea88beb0124ef98,8,1,-1,-1,"visual,plot,great acting,funny,romantic,artistic,awesome soundtrack,good action,dialogue","95,3,75,8,10,52,80,6,83","27,41,52,75,33,11,16,40,44",0,,27865,2022-06-26 18:20:05,156096
628280cc9a101abd75335445,ma_choice_v4_movies_pilot4,628280cc9a101abd75335445,33,0,-1,-1,"romantic,awesome soundtrack,artistic,plot,good action,great acting,visual,dialogue,funny","32,25,3,55,95,38,49,50,46","2,67,36,21,0,68,11,4,12",0,,8580,2022-06-26 18:20:06,156097
6202985fef1cb18a1337c29c,ma_choice_v4_movies_pilot4,6202985fef1cb18a1337c29c,38,0,-1,-1,"awesome soundtrack,romantic,visual,great acting,funny,dialogue,artistic,good action,plot","17,16,12,29,1,38,2,1,24","99,48,93,69,68,95,29,103,58",1,,8631,2022-06-26 18:20:07,156098
5fb5e070ad83631f08d83322,ma_choice_v4_movies_pilot4,5fb5e070ad83631f08d83322,7,0,-1,-1,"romantic,great acting,visual,artistic,dialogue,funny,plot,awesome soundtrack,good action","1,57,77,28,76,54,3,90,42","72,13,49,3,48,2,40,57,0",0,,9240,2022-06-26 18:20:13,156099
6202985fef1cb18a1337c29c,ma_choice_v4_movies_pilot4,6202985fef1cb18a1337c29c,39,0,-1,-1,"visual,awesome soundtrack,good action,great acting,romantic,dialogue,funny,artistic,plot","58,21,0,22,3,14,4,30,23","34,88,29,61,43,79,31,3,2",1,,7493,2022-06-26 18:20:16,156100
628280cc9a101abd75335445,ma_choice_v4_movies_pilot4,628280cc9a101abd75335445,34,0,-1,-1,"good action,artistic,plot,romantic,dialogue,funny,awesome soundtrack,great acting,visual","20,25,20,55,43,51,55,65,39","49,72,65,18,76,5,14,37,96",1,,8534,2022-06-26 18:20:16,156101
6100d7fb6ea88beb0124ef98,ma_choice_v4_movies_pilot4,6100d7fb6ea88beb0124ef98,9,1,-1,-1,"awesome soundtrack,funny,dialogue,visual,good action,great acting,artistic,plot,romantic","61,52,83,30,31,70,18,17,33","10,2,45,84,0,46,65,42,76",1,,18700,2022-06-26 18:20:24,156102
6202985fef1cb18a1337c29c,ma_choice_v4_movies_pilot4,6202985fef1cb18a1337c29c,40,0,-1,-1,"funny,artistic,great acting,romantic,visual,awesome soundtrack,dialogue,plot,good action","61,45,27,86,10,28,15,37,34","1,4,56,13,57,3,66,1,1",0,,7945,2022-06-26 18:20:25,156103
628280cc9a101abd75335445,ma_choice_v4_movies_pilot4,628280cc9a101abd75335445,35,0,-1,-1,"artistic,romantic,funny,awesome soundtrack,great acting,dialogue,visual,plot,good action","3,80,49,56,36,19,33,49,28","66,10,0,26,66,76,75,21,0",1,,7886,2022-06-26 18:20:25,156104
5fb5e070ad83631f08d83322,ma_choice_v4_movies_pilot4,5fb5e070ad83631f08d83322,8,0,-1,-1,"plot,funny,artistic,visual,awesome soundtrack,romantic,dialogue,good action,great acting","1,0,63,49,68,27,28,3,59","39,73,34,24,31,4,70,30,34",1,,18679,2022-06-26 18:20:32,156105
6202985fef1cb18a1337c29c,ma_choice_v4_movies_pilot4,6202985fef1cb18a1337c29c,41,0,-1,-1,"funny,good action,dialogue,awesome soundtrack,artistic,romantic,plot,great acting,visual","1,80,66,14,26,14,37,6,88","69,53,36,48,1,41,3,38,6",0,,8361,2022-06-26 18:20:34,156106
628280cc9a101abd75335445,ma_choice_v4_movies_pilot4,628280cc9a101abd75335445,36,0,-1,-1,"artistic,visual,dialogue,awesome soundtrack,funny,romantic,great acting,good action,plot","7,74,51,54,2,33,34,27,32","32,38,77,19,60,76,76,5,55",1,,8801,2022-06-26 18:20:35,156107
6202985fef1cb18a1337c29c,ma_choice_v4_movies_pilot4,6202985fef1cb18a1337c29c,42,0,-1,-1,"plot,funny,good action,romantic,visual,great acting,dialogue,artistic,awesome soundtrack","19,64,74,39,22,25,14,2,23","44,35,6,74,0,78,80,29,62",1,,7694,2022-06-26 18:20:43,156108
628280cc9a101abd75335445,ma_choice_v4_movies_pilot4,628280cc9a101abd75335445,37,0,-1,-1,"funny,great acting,good action,dialogue,plot,romantic,awesome soundtrack,visual,artistic","37,69,71,9,55,81,64,40,58","1,41,0,59,10,19,7,13,7",0,,8474,2022-06-26 18:20:44,156109
5fb5e070ad83631f08d83322,ma_choice_v4_movies_pilot4,5fb5e070ad83631f08d83322,9,0,-1,-1,"dialogue,plot,great acting,visual,artistic,good action,awesome soundtrack,funny,romantic","80,45,79,31,24,0,60,31,37","23,22,19,6,2,57,18,70,68",0,,15966,2022-06-26 18:20:49,156110
6202985fef1cb18a1337c29c,ma_choice_v4_movies_pilot4,6202985fef1cb18a1337c29c,43,0,-1,-1,"funny,great acting,romantic,dialogue,good action,visual,awesome soundtrack,artistic,plot","52,30,7,72,88,9,30,17,17","0,81,48,38,0,72,4,42,38",0,,7516,2022-06-26 18:20:51,156111
628280cc9a101abd75335445,ma_choice_v4_movies_pilot4,628280cc9a101abd75335445,38,0,-1,-1,"funny,dialogue,awesome soundtrack,visual,plot,artistic,great acting,good action,romantic","68,56,50,50,47,6,24,87,35","19,22,10,3,1,34,45,7,0",0,,8517,2022-06-26 18:20:54,156112
6202985fef1cb18a1337c29c,ma_choice_v4_movies_pilot4,6202985fef1cb18a1337c29c,44,0,-1,-1,"great acting,visual,good action,artistic,romantic,dialogue,awesome soundtrack,plot,funny","50,9,70,5,76,29,80,37,70","79,53,4,27,13,80,33,58,31",1,,7600,2022-06-26 18:21:00,156113
628280cc9a101abd75335445,ma_choice_v4_movies_pilot4,628280cc9a101abd75335445,39,0,-1,-1,"great acting,good action,romantic,funny,awesome soundtrack,plot,dialogue,visual,artistic","47,1,80,40,13,11,93,23,50","22,53,2,16,74,37,70,47,2",0,,8563,2022-06-26 18:21:03,156114
5fb5e070ad83631f08d83322,ma_choice_v4_movies_pilot4,5fb5e070ad83631f08d83322,10,0,-1,-1,"visual,good action,dialogue,artistic,funny,awesome soundtrack,great acting,romantic,plot","67,0,85,56,42,47,83,23,7","7,25,57,13,13,19,62,51,40",0,,13483,2022-06-26 18:21:04,156115
628280cc9a101abd75335445,ma_choice_v4_movies_pilot4,628280cc9a101abd75335445,40,0,-1,-1,"visual,artistic,romantic,plot,dialogue,great acting,good action,funny,awesome soundtrack","93,29,51,26,90,75,81,4,88","5,7,21,59,63,39,0,81,7",0,,8545,2022-06-26 18:21:13,156116
6202985fef1cb18a1337c29c,ma_choice_v4_movies_pilot4,6202985fef1cb18a1337c29c,45,0,-1,-1,"great acting,artistic,good action,dialogue,funny,plot,visual,romantic,awesome soundtrack","62,4,36,72,4,38,4,80,19","41,24,3,47,44,6,37,26,68",0,,14448,2022-06-26 18:21:15,156117
6100d7fb6ea88beb0124ef98,ma_choice_v4_movies_pilot4,6100d7fb6ea88beb0124ef98,0,0,-1,-1,"romantic,artistic,great acting,plot,awesome soundtrack,visual,funny,good action,dialogue","64,26,61,28,72,20,69,11,63","2,2,19,51,36,55,35,95,93",1,,26796,2022-06-26 18:21:19,156118
628280cc9a101abd75335445,ma_choice_v4_movies_pilot4,628280cc9a101abd75335445,41,0,-1,-1,"good action,funny,visual,great acting,romantic,dialogue,artistic,awesome soundtrack,plot","93,18,95,14,1,75,33,34,69","2,62,12,35,23,13,10,3,15",0,,8526,2022-06-26 18:21:22,156119
5fb5e070ad83631f08d83322,ma_choice_v4_movies_pilot4,5fb5e070ad83631f08d83322,11,0,-1,-1,"dialogue,plot,great acting,romantic,awesome soundtrack,artistic,visual,good action,funny","39,34,27,15,11,42,61,0,32","62,7,64,51,75,14,38,38,65",1,,17921,2022-06-26 18:21:23,156120
6202985fef1cb18a1337c29c,ma_choice_v4_movies_pilot4,6202985fef1cb18a1337c29c,46,0,-1,-1,"dialogue,visual,plot,great acting,funny,artistic,awesome soundtrack,good action,romantic","66,80,20,54,55,23,45,14,0","36,19,45,28,78,2,22,55,65",0,,7292,2022-06-26 18:21:24,156121
628280cc9a101abd75335445,ma_choice_v4_movies_pilot4,628280cc9a101abd75335445,42,0,-1,-1,"plot,funny,good action,dialogue,awesome soundtrack,great acting,visual,romantic,artistic","62,2,46,81,22,81,70,2,48","28,43,15,24,46,49,24,43,21",0,,8379,2022-06-26 18:21:32,156122
6202985fef1cb18a1337c29c,ma_choice_v4_movies_pilot4,6202985fef1cb18a1337c29c,47,0,-1,-1,"awesome soundtrack,plot,artistic,funny,dialogue,great acting,good action,romantic,visual","3,15,10,62,13,35,2,23,12","34,69,33,18,75,14,93,1,95",1,,7501,2022-06-26 18:21:32,156123
628280cc9a101abd75335445,ma_choice_v4_movies_pilot4,628280cc9a101abd75335445,43,0,-1,-1,"good action,awesome soundtrack,dialogue,plot,great acting,visual,romantic,funny,artistic","4,28,27,9,53,75,13,7,45","59,4,54,51,18,13,73,74,1",1,,8677,2022-06-26 18:21:42,156124
5fb5e070ad83631f08d83322,ma_choice_v4_movies_pilot4,5fb5e070ad83631f08d83322,12,0,-1,-1,"artistic,dialogue,good action,romantic,visual,funny,plot,awesome soundtrack,great acting","63,43,0,0,54,2,34,8,74","37,74,44,22,34,33,13,31,46",0,,19070,2022-06-26 18:21:43,156125
6202985fef1cb18a1337c29c,ma_choice_v4_movies_pilot4,6202985fef1cb18a1337c29c,48,0,-1,-1,"dialogue,romantic,awesome soundtrack,plot,great acting,artistic,good action,funny,visual","25,24,1,55,51,37,4,64,1","56,51,22,31,15,1,61,14,29",0,,14126,2022-06-26 18:21:47,156126
628280cc9a101abd75335445,ma_choice_v4_movies_pilot4,628280cc9a101abd75335445,44,0,-1,-1,"plot,great acting,artistic,dialogue,awesome soundtrack,visual,romantic,funny,good action","39,34,34,70,31,24,4,73,30","1,59,63,28,68,49,27,0,3",1,,7702,2022-06-26 18:21:50,156127
5fb5e070ad83631f08d83322,ma_choice_v4_movies_pilot4,5fb5e070ad83631f08d83322,13,0,-1,-1,"awesome soundtrack,good action,great acting,plot,visual,romantic,funny,artistic,dialogue","36,95,19,51,55,2,35,2,93","72,11,61,28,20,64,69,26,63",0,,12095,2022-06-26 18:21:56,156128
6202985fef1cb18a1337c29c,ma_choice_v4_movies_pilot4,6202985fef1cb18a1337c29c,49,0,-1,-1,"artistic,funny,great acting,plot,good action,visual,dialogue,awesome soundtrack,romantic","63,0,59,1,3,49,28,68,27","34,73,34,39,30,24,70,31,4",0,,7772,2022-06-26 18:21:56,156129
6100d7fb6ea88beb0124ef98,ma_choice_v4_movies_pilot4,6100d7fb6ea88beb0124ef98,1,0,-1,-1,"dialogue,visual,romantic,artistic,plot,funny,good action,awesome soundtrack,great acting","60,81,0,32,30,2,20,14,32","81,8,78,11,56,77,0,41,54",1,,39118,2022-06-26 18:21:59,156130
628280cc9a101abd75335445,ma_choice_v4_movies_pilot4,628280cc9a101abd75335445,45,0,-1,-1,"visual,plot,romantic,awesome soundtrack,great acting,good action,funny,dialogue,artistic","19,45,65,22,28,55,78,36,2","80,20,0,45,54,14,55,66,23",1,,8528,2022-06-26 18:22:00,156131
6202985fef1cb18a1337c29c,ma_choice_v4_movies_pilot4,6202985fef1cb18a1337c29c,50,0,-1,-1,"dialogue,funny,awesome soundtrack,plot,good action,great acting,visual,romantic,artistic","55,5,2,37,1,26,39,76,4","95,39,85,13,82,75,80,18,29",1,,7521,2022-06-26 18:22:04,156132
5fb5e070ad83631f08d83322,ma_choice_v4_movies_pilot4,5fb5e070ad83631f08d83322,14,0,-1,-1,"awesome soundtrack,plot,good action,dialogue,funny,visual,great acting,romantic,artistic","24,37,37,13,28,42,41,34,33","3,12,3,38,1,21,67,0,2",0,,8597,2022-06-26 18:22:05,156133
6202985fef1cb18a1337c29c,ma_choice_v4_movies_pilot4,6202985fef1cb18a1337c29c,51,0,-1,-1,"artistic,romantic,visual,great acting,good action,awesome soundtrack,dialogue,funny,plot","31,2,85,73,5,73,47,1,58","10,43,33,47,44,23,80,30,24",1,,7622,2022-06-26 18:22:13,156134
5fb5e070ad83631f08d83322,ma_choice_v4_movies_pilot4,5fb5e070ad83631f08d83322,15,0,-1,-1,"funny,visual,artistic,great acting,romantic,dialogue,good action,awesome soundtrack,plot","68,50,6,24,35,56,87,50,47","19,3,34,45,0,22,7,10,1",0,,7689,2022-06-26 18:22:14,156135
628280cc9a101abd75335445,ma_choice_v4_movies_pilot4,628280cc9a101abd75335445,46,0,-1,-1,"visual,dialogue,good action,awesome soundtrack,romantic,artistic,plot,funny,great acting","85,47,5,73,2,31,58,1,73","33,80,44,23,43,10,24,30,47",1,,14817,2022-06-26 18:22:16,156136
6100d7fb6ea88beb0124ef98,ma_choice_v4_movies_pilot4,6100d7fb6ea88beb0124ef98,2,0,-1,-1,"artistic,great acting,visual,romantic,plot,good action,funny,dialogue,awesome soundtrack","34,70,47,7,19,32,83,74,55","7,40,74,44,55,0,0,21,2",1,,23227,2022-06-26 18:22:23,156137
5fb5e070ad83631f08d83322,ma_choice_v4_movies_pilot4,5fb5e070ad83631f08d83322,16,0,-1,-1,"awesome soundtrack,great acting,romantic,dialogue,good action,artistic,visual,plot,funny","30,30,7,72,88,17,9,17,52","4,81,48,38,0,42,72,38,0",1,,8252,2022-06-26 18:22:23,156138
6202985fef1cb18a1337c29c,ma_choice_v4_movies_pilot4,6202985fef1cb18a1337c29c,52,0,-1,-1,"awesome soundtrack,artistic,plot,visual,great acting,funny,romantic,good action,dialogue","15,49,49,6,44,65,63,1,35","44,9,24,71,14,38,12,93,63",1,,10004,2022-06-26 18:22:24,156139
628280cc9a101abd75335445,ma_choice_v4_movies_pilot4,628280cc9a101abd75335445,47,0,-1,-1,"awesome soundtrack,dialogue,funny,great acting,good action,visual,romantic,plot,artistic","28,62,59,17,42,23,4,18,2","4,39,0,53,0,45,44,50,28",1,,8215,2022-06-26 18:22:25,156140
6202985fef1cb18a1337c29c,ma_choice_v4_movies_pilot4,6202985fef1cb18a1337c29c,53,0,-1,-1,"plot,funny,awesome soundtrack,good action,artistic,visual,great acting,dialogue,romantic","21,8,65,1,30,59,64,56,6","43,63,20,33,8,10,38,19,85",0,,7819,2022-06-26 18:22:33,156141
628280cc9a101abd75335445,ma_choice_v4_movies_pilot4,628280cc9a101abd75335445,48,0,-1,-1,"romantic,visual,funny,good action,dialogue,artistic,awesome soundtrack,great acting,plot","90,4,20,46,41,8,8,63,41","48,25,72,4,88,47,42,37,21",1,,7997,2022-06-26 18:22:34,156142
5fb5e070ad83631f08d83322,ma_choice_v4_movies_pilot4,5fb5e070ad83631f08d83322,17,0,-1,-1,"visual,dialogue,good action,romantic,great acting,awesome soundtrack,artistic,funny,plot","5,37,69,78,43,71,42,43,68","61,86,0,16,63,30,21,0,45",0,,11169,2022-06-26 18:22:36,156143
6202985fef1cb18a1337c29c,ma_choice_v4_movies_pilot4,6202985fef1cb18a1337c29c,54,0,-1,-1,"plot,awesome soundtrack,good action,romantic,funny,great acting,visual,dialogue,artistic","2,59,0,56,7,48,48,68,42","48,18,32,93,80,23,9,27,2",1,,7436,2022-06-26 18:22:41,156144
6100d7fb6ea88beb0124ef98,ma_choice_v4_movies_pilot4,6100d7fb6ea88beb0124ef98,3,0,-1,-1,"funny,great acting,awesome soundtrack,good action,visual,artistic,dialogue,romantic,plot","14,39,8,34,14,11,42,37,8","70,68,64,9,45,55,95,15,45",1,,18711,2022-06-26 18:22:43,156145
628280cc9a101abd75335445,ma_choice_v4_movies_pilot4,628280cc9a101abd75335445,49,0,-1,-1,"awesome soundtrack,dialogue,funny,great acting,romantic,visual,artistic,good action,plot","18,23,70,19,68,6,2,57,22","60,80,31,79,37,31,24,0,45",1,,10235,2022-06-26 18:22:45,156146
5fb5e070ad83631f08d83322,ma_choice_v4_movies_pilot4,5fb5e070ad83631f08d83322,18,0,-1,-1,"dialogue,awesome soundtrack,visual,plot,romantic,funny,great acting,artistic,good action","94,85,61,3,73,43,51,5,34","21,24,16,52,0,1,12,41,2",0,,9093,2022-06-26 18:22:46,156147
6202985fef1cb18a1337c29c,ma_choice_v4_movies_pilot4,6202985fef1cb18a1337c29c,55,0,-1,-1,"plot,dialogue,artistic,good action,awesome soundtrack,funny,visual,great acting,romantic","3,31,45,1,35,1,76,36,52","30,56,13,40,9,82,21,65,30",1,,7452,2022-06-26 18:22:50,156148
628280cc9a101abd75335445,ma_choice_v4_movies_pilot4,628280cc9a101abd75335445,50,0,-1,-1,"funny,awesome soundtrack,great acting,good action,dialogue,plot,artistic,visual,romantic","66,15,27,26,9,30,26,10,23","1,70,59,5,58,2,48,87,1",1,,8512,2022-06-26 18:22:55,156149
5fb5e070ad83631f08d83322,ma_choice_v4_movies_pilot4,5fb5e070ad83631f08d83322,19,0,-1,-1,"romantic,plot,funny,artistic,dialogue,awesome soundtrack,visual,good action,great acting","22,1,0,28,64,58,9,5,54","0,46,23,1,13,26,37,47,12",1,,11192,2022-06-26 18:22:58,156150
6202985fef1cb18a1337c29c,ma_choice_v4_movies_pilot4,6202985fef1cb18a1337c29c,56,0,-1,-1,"great acting,dialogue,visual,funny,plot,artistic,good action,romantic,awesome soundtrack","12,21,16,1,52,41,2,0,24","51,94,61,43,3,5,34,73,85",1,,7436,2022-06-26 18:22:58,156151
6100d7fb6ea88beb0124ef98,ma_choice_v4_movies_pilot4,6100d7fb6ea88beb0124ef98,4,0,-1,-1,"dialogue,great acting,good action,funny,awesome soundtrack,artistic,plot,romantic,visual","51,42,68,70,80,4,24,14,67","75,79,2,12,51,36,51,69,25",1,,15666,2022-06-26 18:22:59,156152
628280cc9a101abd75335445,ma_choice_v4_movies_pilot4,628280cc9a101abd75335445,51,0,-1,-1,"artistic,good action,great acting,visual,romantic,funny,dialogue,awesome soundtrack,plot","5,16,60,53,85,58,89,42,61","37,39,32,4,2,1,31,76,40",0,,9023,2022-06-26 18:23:05,156153
6202985fef1cb18a1337c29c,ma_choice_v4_movies_pilot4,6202985fef1cb18a1337c29c,57,0,-1,-1,"awesome soundtrack,great acting,plot,good action,funny,artistic,romantic,visual,dialogue","16,27,39,9,68,11,91,29,50","41,64,7,65,1,36,0,58,7",0,,7501,2022-06-26 18:23:07,156154
628280cc9a101abd75335445,ma_choice_v4_movies_pilot4,628280cc9a101abd75335445,52,0,-1,-1,"dialogue,romantic,great acting,plot,artistic,funny,visual,awesome soundtrack,good action","5,100,53,32,7,3,14,9,2","74,16,32,53,48,62,98,54,70",1,,8443,2022-06-26 18:23:14,156155
6100d7fb6ea88beb0124ef98,ma_choice_v4_movies_pilot4,6100d7fb6ea88beb0124ef98,5,0,-1,-1,"awesome soundtrack,artistic,dialogue,romantic,visual,plot,good action,funny,great acting","13,10,38,6,12,16,28,7,54","59,59,76,65,93,46,2,27,75",1,,14486,2022-06-26 18:23:15,156156
5fb5e070ad83631f08d83322,ma_choice_v4_movies_pilot4,5fb5e070ad83631f08d83322,20,0,-1,-1,"awesome soundtrack,good action,funny,romantic,plot,visual,artistic,great acting,dialogue","32,20,1,1,2,88,28,21,61","10,0,64,75,46,55,5,42,12",1,,16185,2022-06-26 18:23:15,156157
6202985fef1cb18a1337c29c,ma_choice_v4_movies_pilot4,6202985fef1cb18a1337c29c,58,0,-1,-1,"romantic,visual,awesome soundtrack,great acting,dialogue,plot,funny,good action,artistic","48,33,78,23,34,1,1,26,33","4,8,15,50,63,28,49,0,10",1,,7965,2022-06-26 18:23:16,156158
628280cc9a101abd75335445,ma_choice_v4_movies_pilot4,628280cc9a101abd75335445,53,0,-1,-1,"artistic,good action,romantic,great acting,plot,visual,dialogue,funny,awesome soundtrack","4,100,2,52,23,45,76,23,50","47,0,25,29,3,7,5,1,4",0,,8379,2022-06-26 18:23:24,156159
6202985fef1cb18a1337c29c,ma_choice_v4_movies_pilot4,6202985fef1cb18a1337c29c,59,0,-1,-1,"visual,funny,artistic,good action,plot,great acting,dialogue,romantic,awesome soundtrack","62,9,14,2,58,73,68,2,24","31,48,34,25,2,34,47,48,4",0,,7549,2022-06-26 18:23:24,156160
5fb5e070ad83631f08d83322,ma_choice_v4_movies_pilot4,5fb5e070ad83631f08d83322,21,0,-1,-1,"great acting,romantic,awesome soundtrack,dialogue,visual,plot,funny,good action,artistic","54,78,41,81,8,56,77,0,11","32,0,14,60,81,30,2,20,32",0,,9050,2022-06-26 18:23:25,156161
6202985fef1cb18a1337c29c,ma_choice_v4_movies_pilot4,6202985fef1cb18a1337c29c,60,0,-1,-1,"dialogue,funny,romantic,plot,visual,great acting,artistic,good action,awesome soundtrack","50,46,32,55,49,38,3,95,25","4,12,2,21,11,68,36,0,67",0,,7444,2022-06-26 18:23:33,156162
628280cc9a101abd75335445,ma_choice_v4_movies_pilot4,628280cc9a101abd75335445,54,0,-1,-1,"dialogue,good action,great acting,awesome soundtrack,romantic,artistic,visual,funny,plot","86,73,75,91,44,17,75,38,10","17,0,52,9,89,51,2,59,36",0,,8281,2022-06-26 18:23:33,156163
6100d7fb6ea88beb0124ef98,ma_choice_v4_movies_pilot4,6100d7fb6ea88beb0124ef98,6,0,-1,-1,"artistic,dialogue,visual,great acting,good action,plot,funny,awesome soundtrack,romantic","25,79,30,60,0,35,32,27,61","2,49,67,35,95,73,62,86,9",0,,21906,2022-06-26 18:23:38,156164
5fb5e070ad83631f08d83322,ma_choice_v4_movies_pilot4,5fb5e070ad83631f08d83322,22,0,-1,-1,"awesome soundtrack,artistic,funny,good action,plot,great acting,romantic,dialogue,visual","2,7,0,0,55,40,44,21,74","55,34,83,32,19,70,7,74,47",1,,11997,2022-06-26 18:23:38,156165
628280cc9a101abd75335445,ma_choice_v4_movies_pilot4,628280cc9a101abd75335445,55,0,-1,-1,"dialogue,funny,visual,awesome soundtrack,great acting,good action,plot,artistic,romantic","95,70,45,64,68,9,45,55,15","42,14,14,8,39,34,8,11,37",0,,8566,2022-06-26 18:23:42,156166
6202985fef1cb18a1337c29c,ma_choice_v4_movies_pilot4,6202985fef1cb18a1337c29c,61,0,-1,-1,"funny,romantic,awesome soundtrack,dialogue,good action,artistic,visual,great acting,plot","32,61,27,79,0,25,30,60,35","62,9,86,49,95,2,67,35,73",1,,9671,2022-06-26 18:23:43,156167
5fb5e070ad83631f08d83322,ma_choice_v4_movies_pilot4,5fb5e070ad83631f08d83322,23,0,-1,-1,"dialogue,plot,romantic,artistic,awesome soundtrack,good action,great acting,funny,visual","89,61,85,5,42,16,60,58,53","31,40,2,37,76,39,32,1,4",0,,8203,2022-06-26 18:23:47,156168
6202985fef1cb18a1337c29c,ma_choice_v4_movies_pilot4,6202985fef1cb18a1337c29c,62,0,-1,-1,"plot,good action,artistic,romantic,dialogue,awesome soundtrack,great acting,funny,visual","43,2,25,64,25,46,81,8,6","23,41,1,19,87,19,17,64,45",1,,7642,2022-06-26 18:23:52,156169
628280cc9a101abd75335445,ma_choice_v4_movies_pilot4,628280cc9a101abd75335445,56,0,-1,-1,"romantic,great acting,visual,awesome soundtrack,good action,plot,funny,artistic,dialogue","63,32,29,68,41,37,61,38,68","29,67,70,15,0,3,0,15,18",0,,11764,2022-06-26 18:23:55,156170
6100d7fb6ea88beb0124ef98,ma_choice_v4_movies_pilot4,6100d7fb6ea88beb0124ef98,7,0,-1,-1,"good action,romantic,dialogue,awesome soundtrack,funny,visual,artistic,plot,great acting","25,75,79,47,0,91,55,53,70","0,1,49,4,34,40,16,19,45",0,,16675,2022-06-26 18:23:56,156171
5fb5e070ad83631f08d83322,ma_choice_v4_movies_pilot4,5fb5e070ad83631f08d83322,24,0,-1,-1,"dialogue,great acting,awesome soundtrack,visual,funny,romantic,artistic,plot,good action","61,62,15,29,3,32,39,1,4","33,34,39,7,25,86,6,53,32",1,,11385,2022-06-26 18:24:00,156172
6202985fef1cb18a1337c29c,ma_choice_v4_movies_pilot4,6202985fef1cb18a1337c29c,63,0,-1,-1,"visual,funny,plot,artistic,great acting,dialogue,good action,awesome soundtrack,romantic","7,25,53,6,34,33,32,39,86","29,3,1,39,62,61,4,15,32",1,,7438,2022-06-26 18:24:00,156173
628280cc9a101abd75335445,ma_choice_v4_movies_pilot4,628280cc9a101abd75335445,57,0,-1,-1,"visual,good action,great acting,awesome soundtrack,plot,artistic,funny,romantic,dialogue","29,0,60,30,46,59,54,12,75","5,33,89,73,12,4,29,63,32",0,,9114,2022-06-26 18:24:05,156174
6202985fef1cb18a1337c29c,ma_choice_v4_movies_pilot4,6202985fef1cb18a1337c29c,64,0,-1,-1,"dialogue,visual,plot,awesome soundtrack,great acting,funny,romantic,artistic,good action","81,70,62,22,81,2,2,48,46","24,24,28,46,49,43,43,21,15",0,,7469,2022-06-26 18:24:09,156175
628280cc9a101abd75335445,ma_choice_v4_movies_pilot4,628280cc9a101abd75335445,58,0,-1,-1,"artistic,great acting,romantic,funny,visual,awesome soundtrack,plot,dialogue,good action","32,32,0,2,81,14,30,60,20","11,54,78,77,8,41,56,81,0",1,,8315,2022-06-26 18:24:15,156176
6100d7fb6ea88beb0124ef98,ma_choice_v4_movies_pilot4,6100d7fb6ea88beb0124ef98,8,0,-1,-1,"plot,artistic,great acting,good action,awesome soundtrack,visual,funny,dialogue,romantic","7,4,59,40,16,4,70,54,53","28,45,30,4,57,74,23,31,4",1,,19500,2022-06-26 18:24:16,156177
5fb5e070ad83631f08d83322,ma_choice_v4_movies_pilot4,5fb5e070ad83631f08d83322,25,0,-1,-1,"plot,great acting,visual,awesome soundtrack,dialogue,good action,romantic,artistic,funny","37,33,5,16,12,24,90,7,71","14,54,30,70,44,0,17,55,24",0,,15300,2022-06-26 18:24:16,156178
6202985fef1cb18a1337c29c,ma_choice_v4_movies_pilot4,6202985fef1cb18a1337c29c,65,0,-1,-1,"dialogue,artistic,great acting,good action,funny,romantic,awesome soundtrack,visual,plot","28,46,24,5,7,0,50,86,67","76,9,65,36,78,23,24,56,41",1,,10141,2022-06-26 18:24:20,156179
628280cc9a101abd75335445,ma_choice_v4_movies_pilot4,628280cc9a101abd75335445,59,0,-1,-1,"awesome soundtrack,romantic,great acting,artistic,plot,dialogue,visual,good action,funny","90,1,57,28,3,76,77,42,54","57,72,13,3,40,48,49,0,2",0,,8411,2022-06-26 18:24:24,156180
6202985fef1cb18a1337c29c,ma_choice_v4_movies_pilot4,6202985fef1cb18a1337c29c,66,0,-1,-1,"good action,dialogue,artistic,great acting,funny,plot,awesome soundtrack,visual,romantic","35,64,31,75,12,2,90,82,40","10,36,9,32,68,35,15,56,2",0,,7550,2022-06-26 18:24:29,156181
628280cc9a101abd75335445,ma_choice_v4_movies_pilot4,628280cc9a101abd75335445,60,0,-1,-1,"great acting,visual,good action,dialogue,artistic,awesome soundtrack,funny,plot,romantic","63,61,0,86,21,30,0,45,16","43,5,69,37,42,71,43,68,78",1,,8430,2022-06-26 18:24:33,156182
5fb5e070ad83631f08d83322,ma_choice_v4_movies_pilot4,5fb5e070ad83631f08d83322,26,0,-1,-1,"romantic,dialogue,artistic,visual,plot,funny,awesome soundtrack,good action,great acting","41,36,1,6,3,69,48,53,38","14,66,26,88,37,1,14,80,6",0,,17984,2022-06-26 18:24:35,156183
6202985fef1cb18a1337c29c,ma_choice_v4_movies_pilot4,6202985fef1cb18a1337c29c,67,0,-1,-1,"dialogue,awesome soundtrack,romantic,great acting,visual,good action,funny,artistic,plot","75,30,12,60,29,0,54,59,46","32,73,63,89,5,33,29,4,12",0,,7482,2022-06-26 18:24:37,156184
6100d7fb6ea88beb0124ef98,ma_choice_v4_movies_pilot4,6100d7fb6ea88beb0124ef98,9,0,-1,-1,"romantic,plot,visual,dialogue,artistic,awesome soundtrack,funny,good action,great acting","23,41,56,76,9,24,78,36,65","0,67,86,28,46,50,7,5,24",0,,23613,2022-06-26 18:24:41,156185
628280cc9a101abd75335445,ma_choice_v4_movies_pilot4,628280cc9a101abd75335445,61,0,-1,-1,"artistic,great acting,romantic,funny,plot,visual,good action,awesome soundtrack,dialogue","5,51,73,43,3,61,34,85,94","41,12,0,1,52,16,2,24,21",0,,8452,2022-06-26 18:24:43,156186
6202985fef1cb18a1337c29c,ma_choice_v4_movies_pilot4,6202985fef1cb18a1337c29c,68,0,-1,-1,"awesome soundtrack,funny,romantic,good action,plot,dialogue,artistic,visual,great acting","56,0,2,17,1,72,3,16,23","80,29,40,64,51,96,39,76,88",1,,7917,2022-06-26 18:24:46,156187
628280cc9a101abd75335445,ma_choice_v4_movies_pilot4,628280cc9a101abd75335445,62,0,-1,-1,"visual,dialogue,artistic,funny,great acting,good action,romantic,plot,awesome soundtrack","0,80,29,35,78,6,74,44,62","22,14,2,64,25,74,39,19,23",0,,8440,2022-06-26 18:24:52,156188
6202985fef1cb18a1337c29c,ma_choice_v4_movies_pilot4,6202985fef1cb18a1337c29c,69,0,-1,-1,"romantic,dialogue,good action,plot,awesome soundtrack,visual,funny,artistic,great acting","5,48,5,13,4,65,6,36,28","96,13,82,59,58,29,52,3,50",1,,7936,2022-06-26 18:24:55,156189
5fb5e070ad83631f08d83322,ma_choice_v4_movies_pilot4,5fb5e070ad83631f08d83322,27,0,-1,-1,"funny,dialogue,awesome soundtrack,plot,artistic,good action,visual,romantic,great acting","31,62,11,42,29,63,11,11,23","9,36,43,66,6,15,61,47,52",0,,20883,2022-06-26 18:24:57,156190
6100d7fb6ea88beb0124ef98,ma_choice_v4_movies_pilot4,6100d7fb6ea88beb0124ef98,10,0,-1,-1,"awesome soundtrack,dialogue,romantic,funny,good action,visual,great acting,plot,artistic","80,29,76,70,70,9,50,37,5","33,80,13,31,4,53,79,58,27",1,,17372,2022-06-26 18:24:59,156191
628280cc9a101abd75335445,ma_choice_v4_movies_pilot4,628280cc9a101abd75335445,63,0,-1,-1,"great acting,artistic,good action,visual,awesome soundtrack,plot,romantic,dialogue,funny","88,39,64,76,80,51,40,96,29","23,3,17,16,56,1,2,72,0",0,,8451,2022-06-26 18:25:02,156192
6202985fef1cb18a1337c29c,ma_choice_v4_movies_pilot4,6202985fef1cb18a1337c29c,70,0,-1,-1,"plot,romantic,visual,dialogue,great acting,artistic,awesome soundtrack,funny,good action","36,79,62,77,74,25,54,29,3","57,46,20,51,40,5,27,68,43",0,,7567,2022-06-26 18:25:04,156193
628280cc9a101abd75335445,ma_choice_v4_movies_pilot4,628280cc9a101abd75335445,64,0,-1,-1,"artistic,dialogue,visual,romantic,great acting,funny,good action,awesome soundtrack,plot","3,49,26,27,67,41,44,8,50","64,88,75,63,42,9,1,57,19",1,,7948,2022-06-26 18:25:11,156194
6202985fef1cb18a1337c29c,ma_choice_v4_movies_pilot4,6202985fef1cb18a1337c29c,71,0,-1,-1,"funny,great acting,visual,plot,artistic,awesome soundtrack,dialogue,romantic,good action","69,61,20,28,26,72,63,64,11","35,19,55,51,2,36,93,2,95",1,,7762,2022-06-26 18:25:12,156195
6202985fef1cb18a1337c29c,ma_choice_v4_movies_pilot4,6202985fef1cb18a1337c29c,72,0,-1,-1,"awesome soundtrack,romantic,great acting,visual,plot,funny,artistic,good action,dialogue","10,75,42,55,46,64,5,0,12","32,1,21,88,2,1,28,20,61",1,,7681,2022-06-26 18:25:21,156196
628280cc9a101abd75335445,ma_choice_v4_movies_pilot4,628280cc9a101abd75335445,65,0,-1,-1,"dialogue,good action,artistic,great acting,funny,awesome soundtrack,plot,romantic,visual","50,9,11,27,68,16,39,91,29","7,65,36,64,1,41,7,0,58",0,,9490,2022-06-26 18:25:21,156197
5fb5e070ad83631f08d83322,ma_choice_v4_movies_pilot4,5fb5e070ad83631f08d83322,28,0,-1,-1,"dialogue,plot,funny,awesome soundtrack,artistic,great acting,good action,romantic,visual","21,28,59,6,46,77,23,74,46","50,52,2,81,21,32,2,10,77",0,,29132,2022-06-26 18:25:27,156198
6202985fef1cb18a1337c29c,ma_choice_v4_movies_pilot4,6202985fef1cb18a1337c29c,73,0,-1,-1,"dialogue,great acting,good action,funny,plot,artistic,romantic,awesome soundtrack,visual","17,52,0,59,36,51,89,9,2","86,75,73,38,10,17,44,91,75",1,,7506,2022-06-26 18:25:30,156199
628280cc9a101abd75335445,ma_choice_v4_movies_pilot4,628280cc9a101abd75335445,66,0,-1,-1,"artistic,dialogue,funny,romantic,great acting,plot,good action,awesome soundtrack,visual","68,85,36,41,43,39,0,43,85","12,52,13,68,88,15,23,72,13",0,,8322,2022-06-26 18:25:31,156200
5fb5e070ad83631f08d83322,ma_choice_v4_movies_pilot4,5fb5e070ad83631f08d83322,29,0,-1,-1,"artistic,great acting,dialogue,funny,good action,plot,visual,romantic,awesome soundtrack","2,25,14,64,74,19,22,39,23","29,78,80,35,6,44,0,74,62",1,,8082,2022-06-26 18:25:36,156201
6100d7fb6ea88beb0124ef98,ma_choice_v4_movies_pilot4,6100d7fb6ea88beb0124ef98,11,0,-1,-1,"visual,good action,dialogue,great acting,romantic,artistic,plot,funny,awesome soundtrack","58,65,7,64,0,36,7,1,41","29,9,50,27,91,11,39,68,16",1,,36271,2022-06-26 18:25:36,156202
6202985fef1cb18a1337c29c,ma_choice_v4_movies_pilot4,6202985fef1cb18a1337c29c,74,0,-1,-1,"great acting,romantic,good action,plot,dialogue,artistic,visual,awesome soundtrack,funny","74,85,6,7,86,31,26,76,44","49,11,65,35,51,9,52,10,7",0,,7592,2022-06-26 18:25:38,156203
628280cc9a101abd75335445,ma_choice_v4_movies_pilot4,628280cc9a101abd75335445,67,0,-1,-1,"romantic,great acting,funny,good action,visual,artistic,awesome soundtrack,plot,dialogue","45,30,45,2,5,49,14,41,39","13,56,0,32,31,2,68,6,64",1,,8362,2022-06-26 18:25:40,156204
5fb5e070ad83631f08d83322,ma_choice_v4_movies_pilot4,5fb5e070ad83631f08d83322,30,0,-1,-1,"awesome soundtrack,visual,dialogue,good action,plot,great acting,artistic,funny,romantic","31,25,58,45,23,13,3,71,24","63,2,5,0,1,37,38,7,2",0,,9332,2022-06-26 18:25:47,156205
6202985fef1cb18a1337c29c,ma_choice_v4_movies_pilot4,6202985fef1cb18a1337c29c,75,0,-1,-1,"plot,great acting,romantic,awesome soundtrack,good action,dialogue,funny,artistic,visual","48,60,58,1,0,51,1,50,88","16,23,9,23,60,13,73,18,16",0,,7605,2022-06-26 18:25:47,156206
628280cc9a101abd75335445,ma_choice_v4_movies_pilot4,628280cc9a101abd75335445,68,0,-1,-1,"plot,great acting,romantic,artistic,dialogue,awesome soundtrack,visual,funny,good action","37,82,70,5,10,2,3,31,20","1,33,0,41,74,25,69,2,0",1,,9178,2022-06-26 18:25:50,156207
6202985fef1cb18a1337c29c,ma_choice_v4_movies_pilot4,6202985fef1cb18a1337c29c,76,0,-1,-1,"good action,plot,romantic,funny,awesome soundtrack,visual,artistic,great acting,dialogue","0,3,2,3,14,73,37,6,7","74,49,28,82,45,37,8,47,36",1,,7506,2022-06-26 18:25:55,156208
5fb5e070ad83631f08d83322,ma_choice_v4_movies_pilot4,5fb5e070ad83631f08d83322,31,0,-1,-1,"romantic,artistic,dialogue,good action,awesome soundtrack,funny,visual,great acting,plot","96,3,13,82,58,52,29,50,59","5,36,48,5,4,6,65,28,13",0,,9374,2022-06-26 18:25:57,156209
6100d7fb6ea88beb0124ef98,ma_choice_v4_movies_pilot4,6100d7fb6ea88beb0124ef98,12,0,-1,-1,"plot,romantic,artistic,funny,good action,dialogue,great acting,awesome soundtrack,visual","53,16,48,62,70,74,32,54,98","32,100,7,3,2,5,53,9,14",0,,21239,2022-06-26 18:25:59,156210
628280cc9a101abd75335445,ma_choice_v4_movies_pilot4,628280cc9a101abd75335445,69,0,-1,-1,"artistic,great acting,dialogue,awesome soundtrack,plot,funny,good action,romantic,visual","6,52,36,43,66,9,15,47,61","29,23,62,11,42,31,63,11,11",0,,8810,2022-06-26 18:26:00,156211
6202985fef1cb18a1337c29c,ma_choice_v4_movies_pilot4,6202985fef1cb18a1337c29c,77,0,-1,-1,"good action,plot,artistic,visual,romantic,great acting,funny,dialogue,awesome soundtrack","63,42,29,11,11,23,31,62,11","15,66,6,61,47,52,9,36,43",0,,7513,2022-06-26 18:26:04,156212
6202985fef1cb18a1337c29c,ma_choice_v4_movies_pilot4,6202985fef1cb18a1337c29c,78,0,-1,-1,"plot,dialogue,good action,funny,visual,romantic,artistic,great acting,awesome soundtrack","41,74,78,52,18,37,8,21,52","14,6,20,15,38,5,52,48,18",0,,7578,2022-06-26 18:26:12,156213
628280cc9a101abd75335445,ma_choice_v4_movies_pilot4,628280cc9a101abd75335445,70,0,-1,-1,"great acting,artistic,plot,funny,good action,visual,dialogue,awesome soundtrack,romantic","28,5,50,61,95,46,30,43,55","53,66,1,1,0,26,77,18,1",0,,12287,2022-06-26 18:26:13,156214
6100d7fb6ea88beb0124ef98,ma_choice_v4_movies_pilot4,6100d7fb6ea88beb0124ef98,13,0,-1,-1,"awesome soundtrack,plot,romantic,good action,visual,artistic,great acting,funny,dialogue","31,13,22,44,34,37,46,33,74","8,34,0,0,54,63,74,2,43",1,,21716,2022-06-26 18:26:21,156215
6202985fef1cb18a1337c29c,ma_choice_v4_movies_pilot4,6202985fef1cb18a1337c29c,79,0,-1,-1,"funny,artistic,romantic,dialogue,good action,visual,awesome soundtrack,great acting,plot","17,29,20,39,74,61,57,64,67","42,7,69,66,0,15,36,38,3",0,,9321,2022-06-26 18:26:23,156216
5fb5e070ad83631f08d83322,ma_choice_v4_movies_pilot4,5fb5e070ad83631f08d83322,32,0,-1,-1,"good action,visual,artistic,funny,romantic,plot,dialogue,great acting,awesome soundtrack","0,45,28,0,44,50,39,53,4","42,23,2,59,4,18,62,17,28",0,,25157,2022-06-26 18:26:23,156217
628280cc9a101abd75335445,ma_choice_v4_movies_pilot4,628280cc9a101abd75335445,71,0,-1,-1,"dialogue,artistic,good action,visual,awesome soundtrack,plot,great acting,funny,romantic","51,5,43,20,27,57,40,68,46","77,25,3,62,54,36,74,29,79",1,,8941,2022-06-26 18:26:23,156218
6202985fef1cb18a1337c29c,ma_choice_v4_movies_pilot4,6202985fef1cb18a1337c29c,80,0,-1,-1,"visual,funny,good action,romantic,awesome soundtrack,plot,great acting,artistic,dialogue","81,2,20,0,14,30,32,32,60","8,77,0,78,41,56,54,11,81",1,,7461,2022-06-26 18:26:31,156219
628280cc9a101abd75335445,ma_choice_v4_movies_pilot4,628280cc9a101abd75335445,72,0,-1,-1,"dialogue,plot,awesome soundtrack,great acting,good action,artistic,romantic,funny,visual","85,7,47,83,0,56,23,42,67","57,40,19,62,25,13,51,13,7",0,,8804,2022-06-26 18:26:33,156220
6202985fef1cb18a1337c29c,ma_choice_v4_movies_pilot4,6202985fef1cb18a1337c29c,81,0,-1,-1,"awesome soundtrack,good action,dialogue,artistic,plot,great acting,funny,romantic,visual","33,0,63,46,5,48,2,2,41","12,29,18,8,35,25,32,74,11",0,,7461,2022-06-26 18:26:40,156221
5fb5e070ad83631f08d83322,ma_choice_v4_movies_pilot4,5fb5e070ad83631f08d83322,33,0,-1,-1,"dialogue,good action,plot,great acting,artistic,romantic,funny,visual,awesome soundtrack","39,2,41,30,49,45,45,5,14","64,32,6,56,2,13,0,31,68",1,,16567,2022-06-26 18:26:41,156222
6284030f1eb519a3738997bf,ma_choice_v4_movies_pilot4,6284030f1eb519a3738997bf,0,1,-1,-1,"dialogue,plot,funny,romantic,artistic,awesome soundtrack,great acting,visual,good action","64,30,1,2,40,4,44,14,39","41,0,26,39,10,51,18,35,9",0,,11607,2022-06-26 18:26:42,156223
6100d7fb6ea88beb0124ef98,ma_choice_v4_movies_pilot4,6100d7fb6ea88beb0124ef98,14,0,-1,-1,"dialogue,great acting,awesome soundtrack,funny,plot,artistic,good action,visual,romantic","77,80,24,82,45,46,0,17,36","47,14,57,17,0,1,43,69,65",0,,20040,2022-06-26 18:26:42,156224
628280cc9a101abd75335445,ma_choice_v4_movies_pilot4,628280cc9a101abd75335445,73,0,-1,-1,"plot,visual,funny,romantic,good action,artistic,dialogue,awesome soundtrack,great acting","20,40,5,59,0,28,64,18,65","40,16,58,1,86,5,44,51,31",1,,8289,2022-06-26 18:26:42,156225
6202985fef1cb18a1337c29c,ma_choice_v4_movies_pilot4,6202985fef1cb18a1337c29c,82,0,-1,-1,"awesome soundtrack,good action,plot,dialogue,visual,romantic,great acting,artistic,funny","4,59,51,54,13,73,18,1,74","28,4,9,27,75,13,53,45,7",0,,7733,2022-06-26 18:26:48,156226
628280cc9a101abd75335445,ma_choice_v4_movies_pilot4,628280cc9a101abd75335445,74,0,-1,-1,"artistic,awesome soundtrack,romantic,visual,plot,great acting,funny,good action,dialogue","14,24,2,62,58,73,9,2,68","34,4,48,31,2,34,48,25,47",0,,8644,2022-06-26 18:26:52,156227
6284030f1eb519a3738997bf,ma_choice_v4_movies_pilot4,6284030f1eb519a3738997bf,1,1,-1,-1,"awesome soundtrack,great acting,artistic,funny,visual,plot,dialogue,romantic,good action","61,70,18,52,30,17,83,33,31","10,46,65,2,84,42,45,76,0",1,,11087,2022-06-26 18:26:54,156228
5fb5e070ad83631f08d83322,ma_choice_v4_movies_pilot4,5fb5e070ad83631f08d83322,34,0,-1,-1,"awesome soundtrack,funny,dialogue,romantic,plot,artistic,visual,great acting,good action","88,4,90,51,26,29,93,75,81","7,81,63,21,59,7,5,39,0",0,,12903,2022-06-26 18:26:55,156229
6100d7fb6ea88beb0124ef98,ma_choice_v4_movies_pilot4,6100d7fb6ea88beb0124ef98,15,0,-1,-1,"artistic,romantic,plot,dialogue,funny,good action,visual,awesome soundtrack,great acting","66,1,1,77,1,0,26,18,53","5,55,50,30,61,95,46,43,28",1,,12855,2022-06-26 18:26:56,156230
6202985fef1cb18a1337c29c,ma_choice_v4_movies_pilot4,6202985fef1cb18a1337c29c,83,0,-1,-1,"dialogue,plot,funny,awesome soundtrack,visual,good action,romantic,artistic,great acting","20,1,1,14,92,0,4,78,76","93,60,53,68,64,66,26,10,56",1,,8134,2022-06-26 18:26:57,156231
628280cc9a101abd75335445,ma_choice_v4_movies_pilot4,628280cc9a101abd75335445,75,0,-1,-1,"great acting,artistic,funny,romantic,awesome soundtrack,good action,visual,dialogue,plot","21,28,1,1,32,20,88,61,2","42,5,64,75,10,0,55,12,46",1,,8709,2022-06-26 18:27:02,156232
6284030f1eb519a3738997bf,ma_choice_v4_movies_pilot4,6284030f1eb519a3738997bf,2,1,-1,-1,"romantic,dialogue,funny,visual,plot,great acting,awesome soundtrack,good action,artistic","52,94,24,60,27,69,60,34,36","15,66,51,91,59,34,29,0,91",0,,8420,2022-06-26 18:27:03,156233
