subject,version,assignmentId,trial,attribute,rating,least_preferred,most_preferred,type,rt,rt2,full_or_lex,signed_weights,original_or_followup,stamp,id
61087340524af628c86bc38c,ma_choice_v4_movies_pilot4,61087340524af628c86bc38c,0,Acting,1,,,lex_att_rating,5125,,,,,2022-06-26 18:19:48,37142
61087340524af628c86bc38c,ma_choice_v4_movies_pilot4,61087340524af628c86bc38c,2,romantic,50,,,wad_att_rating,8338,,,,,2022-06-26 18:20:05,37143
61087340524af628c86bc38c,ma_choice_v4_movies_pilot4,61087340524af628c86bc38c,0,artistic,24,,,wad_att_rating,7652,,,,,2022-06-26 18:20:12,37144
61087340524af628c86bc38c,ma_choice_v4_movies_pilot4,61087340524af628c86bc38c,6,dialogue,51,,,wad_att_rating,5963,,,,,2022-06-26 18:20:18,37145
61087340524af628c86bc38c,ma_choice_v4_movies_pilot4,61087340524af628c86bc38c,3,visual,62,,,wad_att_rating,3300,,,,,2022-06-26 18:20:22,37146
61087340524af628c86bc38c,ma_choice_v4_movies_pilot4,61087340524af628c86bc38c,1,funny,88,,,wad_att_rating,3303,,,,,2022-06-26 18:20:25,37147
61087340524af628c86bc38c,ma_choice_v4_movies_pilot4,61087340524af628c86bc38c,4,great acting,88,,,wad_att_rating,4621,,,,,2022-06-26 18:20:30,37148
61087340524af628c86bc38c,ma_choice_v4_movies_pilot4,61087340524af628c86bc38c,7,awesome soundtrack,25,,,wad_att_rating,3168,,,,,2022-06-26 18:20:33,37149
61087340524af628c86bc38c,ma_choice_v4_movies_pilot4,61087340524af628c86bc38c,8,good action,62,,,wad_att_rating,3701,,,,,2022-06-26 18:20:36,37150
61087340524af628c86bc38c,ma_choice_v4_movies_pilot4,61087340524af628c86bc38c,5,plot,76,,,wad_att_rating,4219,,,,,2022-06-26 18:20:41,37151
61087340524af628c86bc38c,ma_choice_v4_movies_pilot4,61087340524af628c86bc38c,0,Humor,1,,,ew_att_rating,12265,,,,,2022-06-26 18:21:00,37152
61087340524af628c86bc38c,ma_choice_v4_movies_pilot4,61087340524af628c86bc38c,0,Plot,1,,,ew_att_rating,12265,,,,,2022-06-26 18:21:00,37153
61087340524af628c86bc38c,ma_choice_v4_movies_pilot4,61087340524af628c86bc38c,0,Acting,1,,,ew_att_rating,12265,,,,,2022-06-26 18:21:00,37154
61087340524af628c86bc38c,ma_choice_v4_movies_pilot4,61087340524af628c86bc38c,0,plot,1,Very Bad,Very Good,direction,12028,,,,,2022-06-26 18:21:40,37155
61087340524af628c86bc38c,ma_choice_v4_movies_pilot4,61087340524af628c86bc38c,0,plot,1,Very Bad,Bad,direction,8736,,,,,2022-06-26 18:21:49,37156
61087340524af628c86bc38c,ma_choice_v4_movies_pilot4,61087340524af628c86bc38c,0,plot,1,Bad,Moderate,direction,4863,,,,,2022-06-26 18:21:54,37157
61087340524af628c86bc38c,ma_choice_v4_movies_pilot4,61087340524af628c86bc38c,0,plot,1,Moderate,Good,direction,5080,,,,,2022-06-26 18:21:59,37158
61087340524af628c86bc38c,ma_choice_v4_movies_pilot4,61087340524af628c86bc38c,0,plot,1,Good,Very Good,direction,3080,,,,,2022-06-26 18:22:02,37159
61087340524af628c86bc38c,ma_choice_v4_movies_pilot4,61087340524af628c86bc38c,1,dialogue,1,Very Bad,Very Good,direction,6922,,,,,2022-06-26 18:22:11,37160
61087340524af628c86bc38c,ma_choice_v4_movies_pilot4,61087340524af628c86bc38c,1,dialogue,1,Very Bad,Bad,direction,3753,,,,,2022-06-26 18:22:14,37161
61087340524af628c86bc38c,ma_choice_v4_movies_pilot4,61087340524af628c86bc38c,1,dialogue,1,Bad,Moderate,direction,1699,,,,,2022-06-26 18:22:16,37162
61087340524af628c86bc38c,ma_choice_v4_movies_pilot4,61087340524af628c86bc38c,1,dialogue,1,Moderate,Good,direction,3524,,,,,2022-06-26 18:22:20,37163
61087340524af628c86bc38c,ma_choice_v4_movies_pilot4,61087340524af628c86bc38c,1,dialogue,1,Good,Very Good,direction,2325,,,,,2022-06-26 18:22:22,37164
61087340524af628c86bc38c,ma_choice_v4_movies_pilot4,61087340524af628c86bc38c,2,awesome soundtrack,1,Very Bad,Very Good,direction,3523,,,,,2022-06-26 18:22:26,37165
61087340524af628c86bc38c,ma_choice_v4_movies_pilot4,61087340524af628c86bc38c,2,awesome soundtrack,1,Very Bad,Bad,direction,1783,,,,,2022-06-26 18:22:28,37166
61087340524af628c86bc38c,ma_choice_v4_movies_pilot4,61087340524af628c86bc38c,2,awesome soundtrack,1,Bad,Moderate,direction,2774,,,,,2022-06-26 18:22:31,37167
61087340524af628c86bc38c,ma_choice_v4_movies_pilot4,61087340524af628c86bc38c,2,awesome soundtrack,1,Moderate,Good,direction,1623,,,,,2022-06-26 18:22:33,37168
61087340524af628c86bc38c,ma_choice_v4_movies_pilot4,61087340524af628c86bc38c,2,awesome soundtrack,1,Good,Very Good,direction,1460,,,,,2022-06-26 18:22:34,37169
61087340524af628c86bc38c,ma_choice_v4_movies_pilot4,61087340524af628c86bc38c,3,good action,1,Very Bad,Very Good,direction,1466,,,,,2022-06-26 18:22:37,37170
61087340524af628c86bc38c,ma_choice_v4_movies_pilot4,61087340524af628c86bc38c,3,good action,1,Very Bad,Bad,direction,2454,,,,,2022-06-26 18:22:39,37171
61087340524af628c86bc38c,ma_choice_v4_movies_pilot4,61087340524af628c86bc38c,3,good action,1,Bad,Moderate,direction,1464,,,,,2022-06-26 18:22:41,37172
61087340524af628c86bc38c,ma_choice_v4_movies_pilot4,61087340524af628c86bc38c,3,good action,1,Moderate,Good,direction,1892,,,,,2022-06-26 18:22:43,37173
61087340524af628c86bc38c,ma_choice_v4_movies_pilot4,61087340524af628c86bc38c,3,good action,1,Good,Very Good,direction,1904,,,,,2022-06-26 18:22:44,37174
61087340524af628c86bc38c,ma_choice_v4_movies_pilot4,61087340524af628c86bc38c,4,great acting,1,Very Bad,Very Good,direction,1522,,,,,2022-06-26 18:22:47,37175
61087340524af628c86bc38c,ma_choice_v4_movies_pilot4,61087340524af628c86bc38c,4,great acting,1,Very Bad,Bad,direction,1324,,,,,2022-06-26 18:22:49,37176
61087340524af628c86bc38c,ma_choice_v4_movies_pilot4,61087340524af628c86bc38c,4,great acting,1,Bad,Moderate,direction,2105,,,,,2022-06-26 18:22:51,37177
61087340524af628c86bc38c,ma_choice_v4_movies_pilot4,61087340524af628c86bc38c,4,great acting,1,Moderate,Good,direction,1363,,,,,2022-06-26 18:22:52,37178
61087340524af628c86bc38c,ma_choice_v4_movies_pilot4,61087340524af628c86bc38c,4,great acting,1,Good,Very Good,direction,1327,,,,,2022-06-26 18:22:54,37179
61087340524af628c86bc38c,ma_choice_v4_movies_pilot4,61087340524af628c86bc38c,5,romantic,1,Very Bad,Very Good,direction,1209,,,,,2022-06-26 18:22:56,37180
61087340524af628c86bc38c,ma_choice_v4_movies_pilot4,61087340524af628c86bc38c,5,romantic,1,Very Bad,Bad,direction,1219,,,,,2022-06-26 18:22:57,37181
61087340524af628c86bc38c,ma_choice_v4_movies_pilot4,61087340524af628c86bc38c,5,romantic,1,Bad,Moderate,direction,1488,,,,,2022-06-26 18:22:58,37182
61087340524af628c86bc38c,ma_choice_v4_movies_pilot4,61087340524af628c86bc38c,5,romantic,1,Moderate,Good,direction,2345,,,,,2022-06-26 18:23:01,37183
61087340524af628c86bc38c,ma_choice_v4_movies_pilot4,61087340524af628c86bc38c,5,romantic,1,Good,Very Good,direction,3793,,,,,2022-06-26 18:23:05,37184
61087340524af628c86bc38c,ma_choice_v4_movies_pilot4,61087340524af628c86bc38c,6,artistic,1,Very Bad,Very Good,direction,1357,,,,,2022-06-26 18:23:07,37185
61087340524af628c86bc38c,ma_choice_v4_movies_pilot4,61087340524af628c86bc38c,6,artistic,1,Very Bad,Bad,direction,1857,,,,,2022-06-26 18:23:09,37186
61087340524af628c86bc38c,ma_choice_v4_movies_pilot4,61087340524af628c86bc38c,6,artistic,1,Bad,Moderate,direction,1319,,,,,2022-06-26 18:23:10,37187
61087340524af628c86bc38c,ma_choice_v4_movies_pilot4,61087340524af628c86bc38c,6,artistic,1,Moderate,Good,direction,1883,,,,,2022-06-26 18:23:12,37188
61087340524af628c86bc38c,ma_choice_v4_movies_pilot4,61087340524af628c86bc38c,6,artistic,1,Good,Very Good,direction,1528,,,,,2022-06-26 18:23:13,37189
61087340524af628c86bc38c,ma_choice_v4_movies_pilot4,61087340524af628c86bc38c,7,visual,1,Very Bad,Very Good,direction,1232,,,,,2022-06-26 18:23:16,37190
61087340524af628c86bc38c,ma_choice_v4_movies_pilot4,61087340524af628c86bc38c,7,visual,1,Very Bad,Bad,direction,1423,,,,,2022-06-26 18:23:17,37191
61087340524af628c86bc38c,ma_choice_v4_movies_pilot4,61087340524af628c86bc38c,7,visual,1,Bad,Moderate,direction,1239,,,,,2022-06-26 18:23:18,37192
61087340524af628c86bc38c,ma_choice_v4_movies_pilot4,61087340524af628c86bc38c,7,visual,1,Moderate,Good,direction,1130,,,,,2022-06-26 18:23:20,37193
61087340524af628c86bc38c,ma_choice_v4_movies_pilot4,61087340524af628c86bc38c,7,visual,1,Good,Very Good,direction,1143,,,,,2022-06-26 18:23:21,37194
61087340524af628c86bc38c,ma_choice_v4_movies_pilot4,61087340524af628c86bc38c,8,funny,1,Very Bad,Very Good,direction,1281,,,,,2022-06-26 18:23:23,37195
61087340524af628c86bc38c,ma_choice_v4_movies_pilot4,61087340524af628c86bc38c,8,funny,1,Very Bad,Bad,direction,1348,,,,,2022-06-26 18:23:24,37196
61087340524af628c86bc38c,ma_choice_v4_movies_pilot4,61087340524af628c86bc38c,8,funny,1,Bad,Moderate,direction,1175,,,,,2022-06-26 18:23:25,37197
61087340524af628c86bc38c,ma_choice_v4_movies_pilot4,61087340524af628c86bc38c,8,funny,1,Moderate,Good,direction,1095,,,,,2022-06-26 18:23:26,37198
61087340524af628c86bc38c,ma_choice_v4_movies_pilot4,61087340524af628c86bc38c,8,funny,1,Good,Very Good,direction,1223,,,,,2022-06-26 18:23:28,37199
628280cc9a101abd75335445,ma_choice_v4_movies_pilot4,628280cc9a101abd75335445,0,Visuals,1,,,lex_att_rating,5816,,,,,2022-06-26 18:32:16,37200
628280cc9a101abd75335445,ma_choice_v4_movies_pilot4,628280cc9a101abd75335445,1,funny,74,,,wad_att_rating,4003,,,,,2022-06-26 18:32:24,37201
628280cc9a101abd75335445,ma_choice_v4_movies_pilot4,628280cc9a101abd75335445,6,dialogue,76,,,wad_att_rating,3165,,,,,2022-06-26 18:32:27,37202
628280cc9a101abd75335445,ma_choice_v4_movies_pilot4,628280cc9a101abd75335445,2,romantic,49,,,wad_att_rating,18944,,,,,2022-06-26 18:32:46,37203
628280cc9a101abd75335445,ma_choice_v4_movies_pilot4,628280cc9a101abd75335445,7,awesome soundtrack,48,,,wad_att_rating,6190,,,,,2022-06-26 18:32:52,37204
628280cc9a101abd75335445,ma_choice_v4_movies_pilot4,628280cc9a101abd75335445,0,artistic,83,,,wad_att_rating,7517,,,,,2022-06-26 18:33:00,37205
628280cc9a101abd75335445,ma_choice_v4_movies_pilot4,628280cc9a101abd75335445,3,visual,88,,,wad_att_rating,9548,,,,,2022-06-26 18:33:09,37206
628280cc9a101abd75335445,ma_choice_v4_movies_pilot4,628280cc9a101abd75335445,8,good action,63,,,wad_att_rating,3928,,,,,2022-06-26 18:33:13,37207
628280cc9a101abd75335445,ma_choice_v4_movies_pilot4,628280cc9a101abd75335445,4,great acting,67,,,wad_att_rating,6111,,,,,2022-06-26 18:33:19,37208
628280cc9a101abd75335445,ma_choice_v4_movies_pilot4,628280cc9a101abd75335445,5,plot,77,,,wad_att_rating,4873,,,,,2022-06-26 18:33:24,37209
628280cc9a101abd75335445,ma_choice_v4_movies_pilot4,628280cc9a101abd75335445,0,Creativity,1,,,ew_att_rating,9033,,,,,2022-06-26 18:33:42,37210
628280cc9a101abd75335445,ma_choice_v4_movies_pilot4,628280cc9a101abd75335445,0,Acting,1,,,ew_att_rating,9033,,,,,2022-06-26 18:33:42,37211
628280cc9a101abd75335445,ma_choice_v4_movies_pilot4,628280cc9a101abd75335445,0,Visuals,1,,,ew_att_rating,9033,,,,,2022-06-26 18:33:42,37212
628280cc9a101abd75335445,ma_choice_v4_movies_pilot4,628280cc9a101abd75335445,0,Plot,1,,,ew_att_rating,9033,,,,,2022-06-26 18:33:42,37213
628280cc9a101abd75335445,ma_choice_v4_movies_pilot4,628280cc9a101abd75335445,0,Humor,1,,,ew_att_rating,9033,,,,,2022-06-26 18:33:42,37214
6202985fef1cb18a1337c29c,ma_choice_v4_movies_pilot4,6202985fef1cb18a1337c29c,0,Dialogue,1,,,lex_att_rating,4188,,,,,2022-06-26 18:35:53,37215
6202985fef1cb18a1337c29c,ma_choice_v4_movies_pilot4,6202985fef1cb18a1337c29c,0,Romantic Scenes,1,,,ew_att_rating,11724,,,,,2022-06-26 18:36:10,37216
6202985fef1cb18a1337c29c,ma_choice_v4_movies_pilot4,6202985fef1cb18a1337c29c,0,Humor,1,,,ew_att_rating,11724,,,,,2022-06-26 18:36:10,37217
6202985fef1cb18a1337c29c,ma_choice_v4_movies_pilot4,6202985fef1cb18a1337c29c,0,Acting,1,,,ew_att_rating,11724,,,,,2022-06-26 18:36:10,37218
6202985fef1cb18a1337c29c,ma_choice_v4_movies_pilot4,6202985fef1cb18a1337c29c,0,Plot,1,,,ew_att_rating,11724,,,,,2022-06-26 18:36:10,37219
6202985fef1cb18a1337c29c,ma_choice_v4_movies_pilot4,6202985fef1cb18a1337c29c,0,Dialogue,1,,,ew_att_rating,11724,,,,,2022-06-26 18:36:10,37220
6202985fef1cb18a1337c29c,ma_choice_v4_movies_pilot4,6202985fef1cb18a1337c29c,8,good action,12,,,wad_att_rating,5103,,,,,2022-06-26 18:36:18,37221
6202985fef1cb18a1337c29c,ma_choice_v4_movies_pilot4,6202985fef1cb18a1337c29c,0,artistic,13,,,wad_att_rating,2848,,,,,2022-06-26 18:36:21,37222
6202985fef1cb18a1337c29c,ma_choice_v4_movies_pilot4,6202985fef1cb18a1337c29c,5,plot,76,,,wad_att_rating,4683,,,,,2022-06-26 18:36:26,37223
6202985fef1cb18a1337c29c,ma_choice_v4_movies_pilot4,6202985fef1cb18a1337c29c,2,romantic,52,,,wad_att_rating,2718,,,,,2022-06-26 18:36:29,37224
6202985fef1cb18a1337c29c,ma_choice_v4_movies_pilot4,6202985fef1cb18a1337c29c,6,dialogue,95,,,wad_att_rating,4725,,,,,2022-06-26 18:36:33,37225
6202985fef1cb18a1337c29c,ma_choice_v4_movies_pilot4,6202985fef1cb18a1337c29c,7,awesome soundtrack,12,,,wad_att_rating,3321,,,,,2022-06-26 18:36:37,37226
6202985fef1cb18a1337c29c,ma_choice_v4_movies_pilot4,6202985fef1cb18a1337c29c,1,funny,37,,,wad_att_rating,4047,,,,,2022-06-26 18:36:41,37227
6202985fef1cb18a1337c29c,ma_choice_v4_movies_pilot4,6202985fef1cb18a1337c29c,4,great acting,24,,,wad_att_rating,4146,,,,,2022-06-26 18:36:45,37228
62b44656961e0d774168ef36,ma_choice_v4_movies_pilot4,62b44656961e0d774168ef36,8,good action,50,,,wad_att_rating,4961,,,,,2022-06-26 18:36:47,37229
6202985fef1cb18a1337c29c,ma_choice_v4_movies_pilot4,6202985fef1cb18a1337c29c,3,visual,24,,,wad_att_rating,3858,,,,,2022-06-26 18:36:49,37230
62b44656961e0d774168ef36,ma_choice_v4_movies_pilot4,62b44656961e0d774168ef36,6,dialogue,77,,,wad_att_rating,3624,,,,,2022-06-26 18:36:50,37231
62b44656961e0d774168ef36,ma_choice_v4_movies_pilot4,62b44656961e0d774168ef36,4,great acting,100,,,wad_att_rating,3105,,,,,2022-06-26 18:36:53,37232
62b44656961e0d774168ef36,ma_choice_v4_movies_pilot4,62b44656961e0d774168ef36,7,awesome soundtrack,72,,,wad_att_rating,2506,,,,,2022-06-26 18:36:56,37233
62b44656961e0d774168ef36,ma_choice_v4_movies_pilot4,62b44656961e0d774168ef36,2,romantic,35,,,wad_att_rating,4080,,,,,2022-06-26 18:37:00,37234
62b44656961e0d774168ef36,ma_choice_v4_movies_pilot4,62b44656961e0d774168ef36,5,plot,64,,,wad_att_rating,7328,,,,,2022-06-26 18:37:07,37235
62b44656961e0d774168ef36,ma_choice_v4_movies_pilot4,62b44656961e0d774168ef36,3,visual,45,,,wad_att_rating,4584,,,,,2022-06-26 18:37:12,37236
62b44656961e0d774168ef36,ma_choice_v4_movies_pilot4,62b44656961e0d774168ef36,1,funny,47,,,wad_att_rating,3050,,,,,2022-06-26 18:37:15,37237
62b44656961e0d774168ef36,ma_choice_v4_movies_pilot4,62b44656961e0d774168ef36,0,artistic,87,,,wad_att_rating,3314,,,,,2022-06-26 18:37:18,37238
6202985fef1cb18a1337c29c,ma_choice_v4_movies_pilot4,6202985fef1cb18a1337c29c,0,plot,1,Very Bad,Very Good,direction,4445,,,,,2022-06-26 18:37:29,37239
6202985fef1cb18a1337c29c,ma_choice_v4_movies_pilot4,6202985fef1cb18a1337c29c,0,plot,1,Very Bad,Bad,direction,6473,,,,,2022-06-26 18:37:36,37240
62b44656961e0d774168ef36,ma_choice_v4_movies_pilot4,62b44656961e0d774168ef36,0,Creativity,1,,,ew_att_rating,9974,,,,,2022-06-26 18:37:37,37241
62b44656961e0d774168ef36,ma_choice_v4_movies_pilot4,62b44656961e0d774168ef36,0,Visuals,1,,,ew_att_rating,9974,,,,,2022-06-26 18:37:37,37242
62b44656961e0d774168ef36,ma_choice_v4_movies_pilot4,62b44656961e0d774168ef36,0,Dialogue,1,,,ew_att_rating,9974,,,,,2022-06-26 18:37:37,37243
6202985fef1cb18a1337c29c,ma_choice_v4_movies_pilot4,6202985fef1cb18a1337c29c,0,plot,1,Bad,Moderate,direction,4830,,,,,2022-06-26 18:37:41,37244
6202985fef1cb18a1337c29c,ma_choice_v4_movies_pilot4,6202985fef1cb18a1337c29c,0,plot,1,Moderate,Good,direction,2546,,,,,2022-06-26 18:37:43,37245
6202985fef1cb18a1337c29c,ma_choice_v4_movies_pilot4,6202985fef1cb18a1337c29c,0,plot,1,Good,Very Good,direction,5029,,,,,2022-06-26 18:37:48,37246
6202985fef1cb18a1337c29c,ma_choice_v4_movies_pilot4,6202985fef1cb18a1337c29c,1,funny,1,Very Bad,Very Good,direction,1830,,,,,2022-06-26 18:37:51,37247
6202985fef1cb18a1337c29c,ma_choice_v4_movies_pilot4,6202985fef1cb18a1337c29c,1,funny,1,Very Bad,Bad,direction,1774,,,,,2022-06-26 18:37:53,37248
6202985fef1cb18a1337c29c,ma_choice_v4_movies_pilot4,6202985fef1cb18a1337c29c,1,funny,1,Bad,Moderate,direction,1442,,,,,2022-06-26 18:37:54,37249
6202985fef1cb18a1337c29c,ma_choice_v4_movies_pilot4,6202985fef1cb18a1337c29c,1,funny,1,Moderate,Good,direction,2006,,,,,2022-06-26 18:37:56,37250
6202985fef1cb18a1337c29c,ma_choice_v4_movies_pilot4,6202985fef1cb18a1337c29c,1,funny,1,Good,Very Good,direction,1775,,,,,2022-06-26 18:37:58,37251
6202985fef1cb18a1337c29c,ma_choice_v4_movies_pilot4,6202985fef1cb18a1337c29c,2,awesome soundtrack,1,Very Bad,Very Good,direction,1584,,,,,2022-06-26 18:38:01,37252
6202985fef1cb18a1337c29c,ma_choice_v4_movies_pilot4,6202985fef1cb18a1337c29c,2,awesome soundtrack,1,Very Bad,Bad,direction,1422,,,,,2022-06-26 18:38:02,37253
6202985fef1cb18a1337c29c,ma_choice_v4_movies_pilot4,6202985fef1cb18a1337c29c,2,awesome soundtrack,1,Bad,Moderate,direction,1279,,,,,2022-06-26 18:38:03,37254
6202985fef1cb18a1337c29c,ma_choice_v4_movies_pilot4,6202985fef1cb18a1337c29c,2,awesome soundtrack,1,Moderate,Good,direction,1385,,,,,2022-06-26 18:38:05,37255
6202985fef1cb18a1337c29c,ma_choice_v4_movies_pilot4,6202985fef1cb18a1337c29c,2,awesome soundtrack,1,Good,Very Good,direction,3365,,,,,2022-06-26 18:38:08,37256
6202985fef1cb18a1337c29c,ma_choice_v4_movies_pilot4,6202985fef1cb18a1337c29c,3,dialogue,1,Very Bad,Very Good,direction,1849,,,,,2022-06-26 18:38:11,37257
6202985fef1cb18a1337c29c,ma_choice_v4_movies_pilot4,6202985fef1cb18a1337c29c,3,dialogue,1,Very Bad,Bad,direction,1345,,,,,2022-06-26 18:38:12,37258
6202985fef1cb18a1337c29c,ma_choice_v4_movies_pilot4,6202985fef1cb18a1337c29c,3,dialogue,1,Bad,Moderate,direction,1251,,,,,2022-06-26 18:38:14,37259
628280cc9a101abd75335445,ma_choice_v4_movies_pilot4,628280cc9a101abd75335445,0,visual,1,Very Bad,Very Good,direction,5837,,,,,2022-06-26 18:38:15,37260
6202985fef1cb18a1337c29c,ma_choice_v4_movies_pilot4,6202985fef1cb18a1337c29c,3,dialogue,1,Moderate,Good,direction,1301,,,,,2022-06-26 18:38:15,37261
6202985fef1cb18a1337c29c,ma_choice_v4_movies_pilot4,6202985fef1cb18a1337c29c,3,dialogue,1,Good,Very Good,direction,2079,,,,,2022-06-26 18:38:17,37262
628280cc9a101abd75335445,ma_choice_v4_movies_pilot4,628280cc9a101abd75335445,0,visual,1,Very Bad,Bad,direction,3477,,,,,2022-06-26 18:38:18,37263
628280cc9a101abd75335445,ma_choice_v4_movies_pilot4,628280cc9a101abd75335445,0,visual,1,Bad,Moderate,direction,2970,,,,,2022-06-26 18:38:21,37264
628280cc9a101abd75335445,ma_choice_v4_movies_pilot4,628280cc9a101abd75335445,0,visual,1,Moderate,Good,direction,2648,,,,,2022-06-26 18:38:24,37265
6202985fef1cb18a1337c29c,ma_choice_v4_movies_pilot4,6202985fef1cb18a1337c29c,4,artistic,1,Very Bad,Very Good,direction,7787,,,,,2022-06-26 18:38:26,37266
628280cc9a101abd75335445,ma_choice_v4_movies_pilot4,628280cc9a101abd75335445,0,visual,1,Good,Very Good,direction,2150,,,,,2022-06-26 18:38:26,37267
6202985fef1cb18a1337c29c,ma_choice_v4_movies_pilot4,6202985fef1cb18a1337c29c,4,artistic,1,Very Bad,Bad,direction,2241,,,,,2022-06-26 18:38:28,37268
6202985fef1cb18a1337c29c,ma_choice_v4_movies_pilot4,6202985fef1cb18a1337c29c,4,artistic,1,Bad,Moderate,direction,1532,,,,,2022-06-26 18:38:30,37269
628280cc9a101abd75335445,ma_choice_v4_movies_pilot4,628280cc9a101abd75335445,1,dialogue,1,Very Bad,Very Good,direction,2826,,,,,2022-06-26 18:38:30,37270
6202985fef1cb18a1337c29c,ma_choice_v4_movies_pilot4,6202985fef1cb18a1337c29c,4,artistic,1,Moderate,Good,direction,1759,,,,,2022-06-26 18:38:31,37271
628280cc9a101abd75335445,ma_choice_v4_movies_pilot4,628280cc9a101abd75335445,1,dialogue,1,Very Bad,Bad,direction,2397,,,,,2022-06-26 18:38:32,37272
6202985fef1cb18a1337c29c,ma_choice_v4_movies_pilot4,6202985fef1cb18a1337c29c,4,artistic,1,Good,Very Good,direction,1551,,,,,2022-06-26 18:38:33,37273
628280cc9a101abd75335445,ma_choice_v4_movies_pilot4,628280cc9a101abd75335445,1,dialogue,1,Bad,Moderate,direction,1829,,,,,2022-06-26 18:38:34,37274
628280cc9a101abd75335445,ma_choice_v4_movies_pilot4,628280cc9a101abd75335445,1,dialogue,1,Moderate,Good,direction,1868,,,,,2022-06-26 18:38:36,37275
628280cc9a101abd75335445,ma_choice_v4_movies_pilot4,628280cc9a101abd75335445,1,dialogue,1,Good,Very Good,direction,1742,,,,,2022-06-26 18:38:38,37276
6202985fef1cb18a1337c29c,ma_choice_v4_movies_pilot4,6202985fef1cb18a1337c29c,5,good action,1,Very Bad,Very Good,direction,4552,,,,,2022-06-26 18:38:39,37277
6202985fef1cb18a1337c29c,ma_choice_v4_movies_pilot4,6202985fef1cb18a1337c29c,5,good action,1,Very Bad,Bad,direction,1570,,,,,2022-06-26 18:38:40,37278
6202985fef1cb18a1337c29c,ma_choice_v4_movies_pilot4,6202985fef1cb18a1337c29c,5,good action,1,Bad,Moderate,direction,1061,,,,,2022-06-26 18:38:41,37279
628280cc9a101abd75335445,ma_choice_v4_movies_pilot4,628280cc9a101abd75335445,2,romantic,1,Very Bad,Very Good,direction,2877,,,,,2022-06-26 18:38:42,37280
6202985fef1cb18a1337c29c,ma_choice_v4_movies_pilot4,6202985fef1cb18a1337c29c,5,good action,1,Moderate,Good,direction,1168,,,,,2022-06-26 18:38:42,37281
628280cc9a101abd75335445,ma_choice_v4_movies_pilot4,628280cc9a101abd75335445,2,romantic,1,Very Bad,Bad,direction,1819,,,,,2022-06-26 18:38:43,37282
6202985fef1cb18a1337c29c,ma_choice_v4_movies_pilot4,6202985fef1cb18a1337c29c,5,good action,1,Good,Very Good,direction,1181,,,,,2022-06-26 18:38:44,37283
628280cc9a101abd75335445,ma_choice_v4_movies_pilot4,628280cc9a101abd75335445,2,romantic,1,Bad,Moderate,direction,1515,,,,,2022-06-26 18:38:45,37284
6202985fef1cb18a1337c29c,ma_choice_v4_movies_pilot4,6202985fef1cb18a1337c29c,6,romantic,1,Very Bad,Very Good,direction,1794,,,,,2022-06-26 18:38:46,37285
628280cc9a101abd75335445,ma_choice_v4_movies_pilot4,628280cc9a101abd75335445,2,romantic,1,Moderate,Good,direction,2208,,,,,2022-06-26 18:38:47,37286
6202985fef1cb18a1337c29c,ma_choice_v4_movies_pilot4,6202985fef1cb18a1337c29c,6,romantic,1,Very Bad,Bad,direction,1186,,,,,2022-06-26 18:38:48,37287
6202985fef1cb18a1337c29c,ma_choice_v4_movies_pilot4,6202985fef1cb18a1337c29c,6,romantic,1,Bad,Moderate,direction,1041,,,,,2022-06-26 18:38:49,37288
628280cc9a101abd75335445,ma_choice_v4_movies_pilot4,628280cc9a101abd75335445,2,romantic,1,Good,Very Good,direction,1626,,,,,2022-06-26 18:38:49,37289
6202985fef1cb18a1337c29c,ma_choice_v4_movies_pilot4,6202985fef1cb18a1337c29c,6,romantic,1,Moderate,Good,direction,2320,,,,,2022-06-26 18:38:51,37290
6202985fef1cb18a1337c29c,ma_choice_v4_movies_pilot4,6202985fef1cb18a1337c29c,6,romantic,1,Good,Very Good,direction,1340,,,,,2022-06-26 18:38:52,37291
628280cc9a101abd75335445,ma_choice_v4_movies_pilot4,628280cc9a101abd75335445,3,awesome soundtrack,1,Very Bad,Very Good,direction,2705,,,,,2022-06-26 18:38:53,37292
628280cc9a101abd75335445,ma_choice_v4_movies_pilot4,628280cc9a101abd75335445,3,awesome soundtrack,1,Very Bad,Bad,direction,1768,,,,,2022-06-26 18:38:54,37293
6202985fef1cb18a1337c29c,ma_choice_v4_movies_pilot4,6202985fef1cb18a1337c29c,7,great acting,1,Very Bad,Very Good,direction,1715,,,,,2022-06-26 18:38:55,37294
628280cc9a101abd75335445,ma_choice_v4_movies_pilot4,628280cc9a101abd75335445,3,awesome soundtrack,1,Bad,Moderate,direction,1934,,,,,2022-06-26 18:38:56,37295
6202985fef1cb18a1337c29c,ma_choice_v4_movies_pilot4,6202985fef1cb18a1337c29c,7,great acting,1,Very Bad,Bad,direction,1735,,,,,2022-06-26 18:38:57,37296
628280cc9a101abd75335445,ma_choice_v4_movies_pilot4,628280cc9a101abd75335445,3,awesome soundtrack,1,Moderate,Good,direction,2203,,,,,2022-06-26 18:38:58,37297
6202985fef1cb18a1337c29c,ma_choice_v4_movies_pilot4,6202985fef1cb18a1337c29c,7,great acting,1,Bad,Moderate,direction,2170,,,,,2022-06-26 18:38:59,37298
6202985fef1cb18a1337c29c,ma_choice_v4_movies_pilot4,6202985fef1cb18a1337c29c,7,great acting,1,Moderate,Good,direction,1195,,,,,2022-06-26 18:39:00,37299
628280cc9a101abd75335445,ma_choice_v4_movies_pilot4,628280cc9a101abd75335445,3,awesome soundtrack,1,Good,Very Good,direction,2115,,,,,2022-06-26 18:39:00,37300
6202985fef1cb18a1337c29c,ma_choice_v4_movies_pilot4,6202985fef1cb18a1337c29c,7,great acting,1,Good,Very Good,direction,2009,,,,,2022-06-26 18:39:02,37301
6202985fef1cb18a1337c29c,ma_choice_v4_movies_pilot4,6202985fef1cb18a1337c29c,8,visual,1,Very Bad,Very Good,direction,1243,,,,,2022-06-26 18:39:04,37302
628280cc9a101abd75335445,ma_choice_v4_movies_pilot4,628280cc9a101abd75335445,4,good action,1,Very Bad,Very Good,direction,2768,,,,,2022-06-26 18:39:04,37303
628280cc9a101abd75335445,ma_choice_v4_movies_pilot4,628280cc9a101abd75335445,4,good action,1,Very Bad,Bad,direction,1682,,,,,2022-06-26 18:39:06,37304
6202985fef1cb18a1337c29c,ma_choice_v4_movies_pilot4,6202985fef1cb18a1337c29c,8,visual,1,Very Bad,Bad,direction,2163,,,,,2022-06-26 18:39:06,37305
6202985fef1cb18a1337c29c,ma_choice_v4_movies_pilot4,6202985fef1cb18a1337c29c,8,visual,1,Bad,Moderate,direction,1245,,,,,2022-06-26 18:39:07,37306
628280cc9a101abd75335445,ma_choice_v4_movies_pilot4,628280cc9a101abd75335445,4,good action,1,Bad,Moderate,direction,1540,,,,,2022-06-26 18:39:08,37307
6202985fef1cb18a1337c29c,ma_choice_v4_movies_pilot4,6202985fef1cb18a1337c29c,8,visual,1,Moderate,Good,direction,1584,,,,,2022-06-26 18:39:09,37308
628280cc9a101abd75335445,ma_choice_v4_movies_pilot4,628280cc9a101abd75335445,4,good action,1,Moderate,Good,direction,2456,,,,,2022-06-26 18:39:10,37309
6202985fef1cb18a1337c29c,ma_choice_v4_movies_pilot4,6202985fef1cb18a1337c29c,8,visual,1,Good,Very Good,direction,1402,,,,,2022-06-26 18:39:10,37310
628280cc9a101abd75335445,ma_choice_v4_movies_pilot4,628280cc9a101abd75335445,4,good action,1,Good,Very Good,direction,1861,,,,,2022-06-26 18:39:12,37311
628280cc9a101abd75335445,ma_choice_v4_movies_pilot4,628280cc9a101abd75335445,5,plot,1,Very Bad,Very Good,direction,1596,,,,,2022-06-26 18:39:14,37312
628280cc9a101abd75335445,ma_choice_v4_movies_pilot4,628280cc9a101abd75335445,5,plot,1,Very Bad,Bad,direction,1685,,,,,2022-06-26 18:39:16,37313
628280cc9a101abd75335445,ma_choice_v4_movies_pilot4,628280cc9a101abd75335445,5,plot,1,Bad,Moderate,direction,2304,,,,,2022-06-26 18:39:18,37314
628280cc9a101abd75335445,ma_choice_v4_movies_pilot4,628280cc9a101abd75335445,5,plot,1,Moderate,Good,direction,1384,,,,,2022-06-26 18:39:20,37315
628280cc9a101abd75335445,ma_choice_v4_movies_pilot4,628280cc9a101abd75335445,5,plot,1,Good,Very Good,direction,1666,,,,,2022-06-26 18:39:21,37316
628280cc9a101abd75335445,ma_choice_v4_movies_pilot4,628280cc9a101abd75335445,6,artistic,1,Very Bad,Very Good,direction,1695,,,,,2022-06-26 18:39:24,37317
628280cc9a101abd75335445,ma_choice_v4_movies_pilot4,628280cc9a101abd75335445,6,artistic,1,Very Bad,Bad,direction,1513,,,,,2022-06-26 18:39:26,37318
628280cc9a101abd75335445,ma_choice_v4_movies_pilot4,628280cc9a101abd75335445,6,artistic,1,Bad,Moderate,direction,1438,,,,,2022-06-26 18:39:27,37319
628280cc9a101abd75335445,ma_choice_v4_movies_pilot4,628280cc9a101abd75335445,6,artistic,1,Moderate,Good,direction,1555,,,,,2022-06-26 18:39:29,37320
628280cc9a101abd75335445,ma_choice_v4_movies_pilot4,628280cc9a101abd75335445,6,artistic,1,Good,Very Good,direction,3030,,,,,2022-06-26 18:39:32,37321
628280cc9a101abd75335445,ma_choice_v4_movies_pilot4,628280cc9a101abd75335445,7,great acting,1,Very Bad,Very Good,direction,1609,,,,,2022-06-26 18:39:34,37322
628280cc9a101abd75335445,ma_choice_v4_movies_pilot4,628280cc9a101abd75335445,7,great acting,1,Very Bad,Bad,direction,1493,,,,,2022-06-26 18:39:36,37323
628280cc9a101abd75335445,ma_choice_v4_movies_pilot4,628280cc9a101abd75335445,7,great acting,1,Bad,Moderate,direction,1400,,,,,2022-06-26 18:39:37,37324
628280cc9a101abd75335445,ma_choice_v4_movies_pilot4,628280cc9a101abd75335445,7,great acting,1,Moderate,Good,direction,1624,,,,,2022-06-26 18:39:39,37325
628280cc9a101abd75335445,ma_choice_v4_movies_pilot4,628280cc9a101abd75335445,7,great acting,1,Good,Very Good,direction,2131,,,,,2022-06-26 18:39:41,37326
628280cc9a101abd75335445,ma_choice_v4_movies_pilot4,628280cc9a101abd75335445,8,funny,1,Very Bad,Very Good,direction,1967,,,,,2022-06-26 18:39:44,37327
628280cc9a101abd75335445,ma_choice_v4_movies_pilot4,628280cc9a101abd75335445,8,funny,1,Very Bad,Bad,direction,1497,,,,,2022-06-26 18:39:45,37328
628280cc9a101abd75335445,ma_choice_v4_movies_pilot4,628280cc9a101abd75335445,8,funny,1,Bad,Moderate,direction,1660,,,,,2022-06-26 18:39:47,37329
628280cc9a101abd75335445,ma_choice_v4_movies_pilot4,628280cc9a101abd75335445,8,funny,1,Moderate,Good,direction,1789,,,,,2022-06-26 18:39:49,37330
628280cc9a101abd75335445,ma_choice_v4_movies_pilot4,628280cc9a101abd75335445,8,funny,1,Good,Very Good,direction,2404,,,,,2022-06-26 18:39:51,37331
5fb5e070ad83631f08d83322,ma_choice_v4_movies_pilot4,5fb5e070ad83631f08d83322,7,awesome soundtrack,25,,,wad_att_rating,9829,,,,,2022-06-26 18:42:01,37332
5fb5e070ad83631f08d83322,ma_choice_v4_movies_pilot4,5fb5e070ad83631f08d83322,3,visual,31,,,wad_att_rating,3903,,,,,2022-06-26 18:42:05,37333
5fb5e070ad83631f08d83322,ma_choice_v4_movies_pilot4,5fb5e070ad83631f08d83322,8,good action,58,,,wad_att_rating,5760,,,,,2022-06-26 18:42:11,37334
5fb5e070ad83631f08d83322,ma_choice_v4_movies_pilot4,5fb5e070ad83631f08d83322,1,funny,53,,,wad_att_rating,3066,,,,,2022-06-26 18:42:14,37335
5fb5e070ad83631f08d83322,ma_choice_v4_movies_pilot4,5fb5e070ad83631f08d83322,0,artistic,39,,,wad_att_rating,3325,,,,,2022-06-26 18:42:17,37336
5fb5e070ad83631f08d83322,ma_choice_v4_movies_pilot4,5fb5e070ad83631f08d83322,6,dialogue,79,,,wad_att_rating,3591,,,,,2022-06-26 18:42:21,37337
5fb5e070ad83631f08d83322,ma_choice_v4_movies_pilot4,5fb5e070ad83631f08d83322,4,great acting,100,,,wad_att_rating,2545,,,,,2022-06-26 18:42:23,37338
5fb5e070ad83631f08d83322,ma_choice_v4_movies_pilot4,5fb5e070ad83631f08d83322,5,plot,78,,,wad_att_rating,3182,,,,,2022-06-26 18:42:27,37339
5fb5e070ad83631f08d83322,ma_choice_v4_movies_pilot4,5fb5e070ad83631f08d83322,2,romantic,70,,,wad_att_rating,2907,,,,,2022-06-26 18:42:30,37340
62b44656961e0d774168ef36,ma_choice_v4_movies_pilot4,62b44656961e0d774168ef36,0,great acting,1,Very Bad,Very Good,direction,10954,,,,,2022-06-26 18:42:38,37341
62b44656961e0d774168ef36,ma_choice_v4_movies_pilot4,62b44656961e0d774168ef36,0,great acting,1,Very Bad,Bad,direction,10889,,,,,2022-06-26 18:42:48,37342
5fb5e070ad83631f08d83322,ma_choice_v4_movies_pilot4,5fb5e070ad83631f08d83322,0,Dialogue,1,,,ew_att_rating,16344,,,,,2022-06-26 18:42:51,37343
5fb5e070ad83631f08d83322,ma_choice_v4_movies_pilot4,5fb5e070ad83631f08d83322,0,Plot,1,,,ew_att_rating,16344,,,,,2022-06-26 18:42:51,37344
5fb5e070ad83631f08d83322,ma_choice_v4_movies_pilot4,5fb5e070ad83631f08d83322,0,Acting,1,,,ew_att_rating,16344,,,,,2022-06-26 18:42:51,37345
5fb5e070ad83631f08d83322,ma_choice_v4_movies_pilot4,5fb5e070ad83631f08d83322,0,Humor,1,,,ew_att_rating,16344,,,,,2022-06-26 18:42:51,37346
5fb5e070ad83631f08d83322,ma_choice_v4_movies_pilot4,5fb5e070ad83631f08d83322,0,Action Scenes,1,,,ew_att_rating,16344,,,,,2022-06-26 18:42:51,37347
5fb5e070ad83631f08d83322,ma_choice_v4_movies_pilot4,5fb5e070ad83631f08d83322,0,Romantic Scenes,1,,,ew_att_rating,16344,,,,,2022-06-26 18:42:51,37348
62b44656961e0d774168ef36,ma_choice_v4_movies_pilot4,62b44656961e0d774168ef36,0,great acting,1,Bad,Moderate,direction,8712,,,,,2022-06-26 18:42:57,37349
5fb5e070ad83631f08d83322,ma_choice_v4_movies_pilot4,5fb5e070ad83631f08d83322,0,Acting,1,,,lex_att_rating,5476,,,,,2022-06-26 18:42:59,37350
62b44656961e0d774168ef36,ma_choice_v4_movies_pilot4,62b44656961e0d774168ef36,0,great acting,1,Moderate,Good,direction,5012,,,,,2022-06-26 18:43:02,37351
62b44656961e0d774168ef36,ma_choice_v4_movies_pilot4,62b44656961e0d774168ef36,0,great acting,1,Good,Very Good,direction,9448,,,,,2022-06-26 18:43:11,37352
62b44656961e0d774168ef36,ma_choice_v4_movies_pilot4,62b44656961e0d774168ef36,1,funny,1,Very Bad,Very Good,direction,6809,,,,,2022-06-26 18:43:20,37353
62b44656961e0d774168ef36,ma_choice_v4_movies_pilot4,62b44656961e0d774168ef36,1,funny,1,Very Bad,Bad,direction,6372,,,,,2022-06-26 18:43:27,37354
62b44656961e0d774168ef36,ma_choice_v4_movies_pilot4,62b44656961e0d774168ef36,1,funny,1,Bad,Moderate,direction,5381,,,,,2022-06-26 18:43:32,37355
62b44656961e0d774168ef36,ma_choice_v4_movies_pilot4,62b44656961e0d774168ef36,1,funny,1,Moderate,Good,direction,5556,,,,,2022-06-26 18:43:38,37356
62b44656961e0d774168ef36,ma_choice_v4_movies_pilot4,62b44656961e0d774168ef36,1,funny,1,Good,Very Good,direction,5741,,,,,2022-06-26 18:43:44,37357
62b44656961e0d774168ef36,ma_choice_v4_movies_pilot4,62b44656961e0d774168ef36,2,plot,1,Very Bad,Very Good,direction,10983,,,,,2022-06-26 18:43:56,37358
62b44656961e0d774168ef36,ma_choice_v4_movies_pilot4,62b44656961e0d774168ef36,2,plot,1,Very Bad,Bad,direction,5483,,,,,2022-06-26 18:44:02,37359
62b44656961e0d774168ef36,ma_choice_v4_movies_pilot4,62b44656961e0d774168ef36,2,plot,1,Bad,Moderate,direction,2495,,,,,2022-06-26 18:44:04,37360
62b44656961e0d774168ef36,ma_choice_v4_movies_pilot4,62b44656961e0d774168ef36,2,plot,1,Moderate,Good,direction,2142,,,,,2022-06-26 18:44:06,37361
62b44656961e0d774168ef36,ma_choice_v4_movies_pilot4,62b44656961e0d774168ef36,2,plot,1,Good,Very Good,direction,3246,,,,,2022-06-26 18:44:10,37362
62b44656961e0d774168ef36,ma_choice_v4_movies_pilot4,62b44656961e0d774168ef36,3,awesome soundtrack,1,Very Bad,Very Good,direction,4069,,,,,2022-06-26 18:44:15,37363
62b44656961e0d774168ef36,ma_choice_v4_movies_pilot4,62b44656961e0d774168ef36,3,awesome soundtrack,1,Very Bad,Bad,direction,2870,,,,,2022-06-26 18:44:18,37364
62b44656961e0d774168ef36,ma_choice_v4_movies_pilot4,62b44656961e0d774168ef36,3,awesome soundtrack,1,Bad,Moderate,direction,2479,,,,,2022-06-26 18:44:20,37365
62b44656961e0d774168ef36,ma_choice_v4_movies_pilot4,62b44656961e0d774168ef36,3,awesome soundtrack,1,Moderate,Good,direction,2014,,,,,2022-06-26 18:44:22,37366
62b44656961e0d774168ef36,ma_choice_v4_movies_pilot4,62b44656961e0d774168ef36,3,awesome soundtrack,1,Good,Very Good,direction,1783,,,,,2022-06-26 18:44:24,37367
62b44656961e0d774168ef36,ma_choice_v4_movies_pilot4,62b44656961e0d774168ef36,4,romantic,1,Very Bad,Very Good,direction,1869,,,,,2022-06-26 18:44:27,37368
62b44656961e0d774168ef36,ma_choice_v4_movies_pilot4,62b44656961e0d774168ef36,4,romantic,1,Very Bad,Bad,direction,2765,,,,,2022-06-26 18:44:30,37369
62b44656961e0d774168ef36,ma_choice_v4_movies_pilot4,62b44656961e0d774168ef36,4,romantic,1,Bad,Moderate,direction,2271,,,,,2022-06-26 18:44:32,37370
62b44656961e0d774168ef36,ma_choice_v4_movies_pilot4,62b44656961e0d774168ef36,4,romantic,1,Moderate,Good,direction,6324,,,,,2022-06-26 18:44:38,37371
62b44656961e0d774168ef36,ma_choice_v4_movies_pilot4,62b44656961e0d774168ef36,4,romantic,1,Good,Very Good,direction,2806,,,,,2022-06-26 18:44:41,37372
62b44656961e0d774168ef36,ma_choice_v4_movies_pilot4,62b44656961e0d774168ef36,5,artistic,1,Very Bad,Very Good,direction,2598,,,,,2022-06-26 18:44:44,37373
62b44656961e0d774168ef36,ma_choice_v4_movies_pilot4,62b44656961e0d774168ef36,5,artistic,1,Very Bad,Bad,direction,2716,,,,,2022-06-26 18:44:47,37374
62b44656961e0d774168ef36,ma_choice_v4_movies_pilot4,62b44656961e0d774168ef36,5,artistic,1,Bad,Moderate,direction,1663,,,,,2022-06-26 18:44:49,37375
62b44656961e0d774168ef36,ma_choice_v4_movies_pilot4,62b44656961e0d774168ef36,5,artistic,1,Moderate,Good,direction,3814,,,,,2022-06-26 18:44:53,37376
62b44656961e0d774168ef36,ma_choice_v4_movies_pilot4,62b44656961e0d774168ef36,5,artistic,1,Good,Very Good,direction,3517,,,,,2022-06-26 18:44:56,37377
62b44656961e0d774168ef36,ma_choice_v4_movies_pilot4,62b44656961e0d774168ef36,6,visual,1,Very Bad,Very Good,direction,7272,,,,,2022-06-26 18:45:05,37378
62b44656961e0d774168ef36,ma_choice_v4_movies_pilot4,62b44656961e0d774168ef36,6,visual,1,Very Bad,Bad,direction,17964,,,,,2022-06-26 18:45:23,37379
62b44656961e0d774168ef36,ma_choice_v4_movies_pilot4,62b44656961e0d774168ef36,6,visual,1,Bad,Moderate,direction,1750,,,,,2022-06-26 18:45:25,37380
6284030f1eb519a3738997bf,ma_choice_v4_movies_pilot4,6284030f1eb519a3738997bf,6,dialogue,50,,,wad_att_rating,2480,,,,,2022-06-26 18:45:28,37381
6284030f1eb519a3738997bf,ma_choice_v4_movies_pilot4,6284030f1eb519a3738997bf,2,romantic,77,,,wad_att_rating,2429,,,,,2022-06-26 18:45:30,37382
62b44656961e0d774168ef36,ma_choice_v4_movies_pilot4,62b44656961e0d774168ef36,6,visual,1,Moderate,Good,direction,5987,,,,,2022-06-26 18:45:31,37383
62b44656961e0d774168ef36,ma_choice_v4_movies_pilot4,62b44656961e0d774168ef36,6,visual,1,Good,Very Good,direction,1935,,,,,2022-06-26 18:45:33,37384
6284030f1eb519a3738997bf,ma_choice_v4_movies_pilot4,6284030f1eb519a3738997bf,0,artistic,26,,,wad_att_rating,2995,,,,,2022-06-26 18:45:33,37385
6284030f1eb519a3738997bf,ma_choice_v4_movies_pilot4,6284030f1eb519a3738997bf,7,awesome soundtrack,0,,,wad_att_rating,3329,,,,,2022-06-26 18:45:37,37386
62b44656961e0d774168ef36,ma_choice_v4_movies_pilot4,62b44656961e0d774168ef36,7,dialogue,1,Very Bad,Very Good,direction,3612,,,,,2022-06-26 18:45:37,37387
62b44656961e0d774168ef36,ma_choice_v4_movies_pilot4,62b44656961e0d774168ef36,7,dialogue,1,Very Bad,Bad,direction,2151,,,,,2022-06-26 18:45:40,37388
6284030f1eb519a3738997bf,ma_choice_v4_movies_pilot4,6284030f1eb519a3738997bf,5,plot,74,,,wad_att_rating,3578,,,,,2022-06-26 18:45:40,37389
62b44656961e0d774168ef36,ma_choice_v4_movies_pilot4,62b44656961e0d774168ef36,7,dialogue,1,Bad,Moderate,direction,2247,,,,,2022-06-26 18:45:42,37390
6284030f1eb519a3738997bf,ma_choice_v4_movies_pilot4,6284030f1eb519a3738997bf,3,visual,28,,,wad_att_rating,1945,,,,,2022-06-26 18:45:42,37391
62b44656961e0d774168ef36,ma_choice_v4_movies_pilot4,62b44656961e0d774168ef36,7,dialogue,1,Moderate,Good,direction,2319,,,,,2022-06-26 18:45:44,37392
62b44656961e0d774168ef36,ma_choice_v4_movies_pilot4,62b44656961e0d774168ef36,7,dialogue,1,Good,Very Good,direction,1766,,,,,2022-06-26 18:45:46,37393
6284030f1eb519a3738997bf,ma_choice_v4_movies_pilot4,6284030f1eb519a3738997bf,4,great acting,84,,,wad_att_rating,4012,,,,,2022-06-26 18:45:46,37394
6284030f1eb519a3738997bf,ma_choice_v4_movies_pilot4,6284030f1eb519a3738997bf,1,funny,14,,,wad_att_rating,2495,,,,,2022-06-26 18:45:49,37395
62b44656961e0d774168ef36,ma_choice_v4_movies_pilot4,62b44656961e0d774168ef36,8,good action,1,Very Bad,Very Good,direction,4579,,,,,2022-06-26 18:45:52,37396
6284030f1eb519a3738997bf,ma_choice_v4_movies_pilot4,6284030f1eb519a3738997bf,8,good action,12,,,wad_att_rating,3130,,,,,2022-06-26 18:45:52,37397
62b44656961e0d774168ef36,ma_choice_v4_movies_pilot4,62b44656961e0d774168ef36,8,good action,1,Very Bad,Bad,direction,2208,,,,,2022-06-26 18:45:54,37398
62b44656961e0d774168ef36,ma_choice_v4_movies_pilot4,62b44656961e0d774168ef36,8,good action,1,Bad,Moderate,direction,1399,,,,,2022-06-26 18:45:55,37399
62b44656961e0d774168ef36,ma_choice_v4_movies_pilot4,62b44656961e0d774168ef36,8,good action,1,Moderate,Good,direction,1127,,,,,2022-06-26 18:45:56,37400
62b44656961e0d774168ef36,ma_choice_v4_movies_pilot4,62b44656961e0d774168ef36,8,good action,1,Good,Very Good,direction,1809,,,,,2022-06-26 18:45:58,37401
6284030f1eb519a3738997bf,ma_choice_v4_movies_pilot4,6284030f1eb519a3738997bf,0,Romantic Scenes,1,,,ew_att_rating,10542,,,,,2022-06-26 18:46:04,37402
6284030f1eb519a3738997bf,ma_choice_v4_movies_pilot4,6284030f1eb519a3738997bf,0,Acting,1,,,ew_att_rating,10542,,,,,2022-06-26 18:46:04,37403
6284030f1eb519a3738997bf,ma_choice_v4_movies_pilot4,6284030f1eb519a3738997bf,0,Dialogue,1,,,ew_att_rating,10542,,,,,2022-06-26 18:46:04,37404
6284030f1eb519a3738997bf,ma_choice_v4_movies_pilot4,6284030f1eb519a3738997bf,0,Romantic Scenes,1,,,lex_att_rating,3063,,,,,2022-06-26 18:46:10,37405
5fb5e070ad83631f08d83322,ma_choice_v4_movies_pilot4,5fb5e070ad83631f08d83322,0,plot,1,Very Bad,Very Good,direction,11289,,,,,2022-06-26 18:48:10,37406
5fb5e070ad83631f08d83322,ma_choice_v4_movies_pilot4,5fb5e070ad83631f08d83322,0,plot,1,Very Bad,Bad,direction,12430,,,,,2022-06-26 18:48:22,37407
5fb5e070ad83631f08d83322,ma_choice_v4_movies_pilot4,5fb5e070ad83631f08d83322,0,plot,1,Bad,Moderate,direction,5161,,,,,2022-06-26 18:48:27,37408
5fb5e070ad83631f08d83322,ma_choice_v4_movies_pilot4,5fb5e070ad83631f08d83322,0,plot,1,Moderate,Good,direction,2436,,,,,2022-06-26 18:48:30,37409
5fb5e070ad83631f08d83322,ma_choice_v4_movies_pilot4,5fb5e070ad83631f08d83322,0,plot,1,Good,Very Good,direction,2923,,,,,2022-06-26 18:48:33,37410
5fb5e070ad83631f08d83322,ma_choice_v4_movies_pilot4,5fb5e070ad83631f08d83322,1,great acting,1,Very Bad,Very Good,direction,4258,,,,,2022-06-26 18:48:38,37411
5fb5e070ad83631f08d83322,ma_choice_v4_movies_pilot4,5fb5e070ad83631f08d83322,1,great acting,1,Very Bad,Bad,direction,5510,,,,,2022-06-26 18:48:44,37412
5fb5e070ad83631f08d83322,ma_choice_v4_movies_pilot4,5fb5e070ad83631f08d83322,1,great acting,1,Bad,Moderate,direction,4692,,,,,2022-06-26 18:48:48,37413
5fb5e070ad83631f08d83322,ma_choice_v4_movies_pilot4,5fb5e070ad83631f08d83322,1,great acting,1,Moderate,Good,direction,2469,,,,,2022-06-26 18:48:51,37414
5fb5e070ad83631f08d83322,ma_choice_v4_movies_pilot4,5fb5e070ad83631f08d83322,1,great acting,1,Good,Very Good,direction,3070,,,,,2022-06-26 18:48:54,37415
5fb5e070ad83631f08d83322,ma_choice_v4_movies_pilot4,5fb5e070ad83631f08d83322,2,funny,1,Very Bad,Very Good,direction,3124,,,,,2022-06-26 18:48:58,37416
5fb5e070ad83631f08d83322,ma_choice_v4_movies_pilot4,5fb5e070ad83631f08d83322,2,funny,1,Very Bad,Bad,direction,3301,,,,,2022-06-26 18:49:01,37417
5fb5e070ad83631f08d83322,ma_choice_v4_movies_pilot4,5fb5e070ad83631f08d83322,2,funny,1,Bad,Moderate,direction,2054,,,,,2022-06-26 18:49:04,37418
5fb5e070ad83631f08d83322,ma_choice_v4_movies_pilot4,5fb5e070ad83631f08d83322,2,funny,1,Moderate,Good,direction,2793,,,,,2022-06-26 18:49:06,37419
5fb5e070ad83631f08d83322,ma_choice_v4_movies_pilot4,5fb5e070ad83631f08d83322,2,funny,1,Good,Very Good,direction,1664,,,,,2022-06-26 18:49:08,37420
5fb5e070ad83631f08d83322,ma_choice_v4_movies_pilot4,5fb5e070ad83631f08d83322,3,visual,1,Very Bad,Very Good,direction,1985,,,,,2022-06-26 18:49:11,37421
6284030f1eb519a3738997bf,ma_choice_v4_movies_pilot4,6284030f1eb519a3738997bf,0,dialogue,1,Very Bad,Very Good,direction,4180,,,,,2022-06-26 18:49:11,37422
5fb5e070ad83631f08d83322,ma_choice_v4_movies_pilot4,5fb5e070ad83631f08d83322,3,visual,1,Very Bad,Bad,direction,1463,,,,,2022-06-26 18:49:12,37423
6284030f1eb519a3738997bf,ma_choice_v4_movies_pilot4,6284030f1eb519a3738997bf,0,dialogue,1,Very Bad,Bad,direction,2961,,,,,2022-06-26 18:49:14,37424
5fb5e070ad83631f08d83322,ma_choice_v4_movies_pilot4,5fb5e070ad83631f08d83322,3,visual,1,Bad,Moderate,direction,1466,,,,,2022-06-26 18:49:14,37425
5fb5e070ad83631f08d83322,ma_choice_v4_movies_pilot4,5fb5e070ad83631f08d83322,3,visual,1,Moderate,Good,direction,2058,,,,,2022-06-26 18:49:16,37426
6284030f1eb519a3738997bf,ma_choice_v4_movies_pilot4,6284030f1eb519a3738997bf,0,dialogue,1,Bad,Moderate,direction,2296,,,,,2022-06-26 18:49:16,37427
5fb5e070ad83631f08d83322,ma_choice_v4_movies_pilot4,5fb5e070ad83631f08d83322,3,visual,1,Good,Very Good,direction,1885,,,,,2022-06-26 18:49:18,37428
6284030f1eb519a3738997bf,ma_choice_v4_movies_pilot4,6284030f1eb519a3738997bf,0,dialogue,1,Moderate,Good,direction,1963,,,,,2022-06-26 18:49:18,37429
6284030f1eb519a3738997bf,ma_choice_v4_movies_pilot4,6284030f1eb519a3738997bf,0,dialogue,1,Good,Very Good,direction,1528,,,,,2022-06-26 18:49:19,37430
5fb5e070ad83631f08d83322,ma_choice_v4_movies_pilot4,5fb5e070ad83631f08d83322,4,artistic,1,Very Bad,Very Good,direction,1497,,,,,2022-06-26 18:49:20,37431
5fb5e070ad83631f08d83322,ma_choice_v4_movies_pilot4,5fb5e070ad83631f08d83322,4,artistic,1,Very Bad,Bad,direction,1591,,,,,2022-06-26 18:49:21,37432
6284030f1eb519a3738997bf,ma_choice_v4_movies_pilot4,6284030f1eb519a3738997bf,1,funny,1,Very Bad,Very Good,direction,1531,,,,,2022-06-26 18:49:22,37433
5fb5e070ad83631f08d83322,ma_choice_v4_movies_pilot4,5fb5e070ad83631f08d83322,4,artistic,1,Bad,Moderate,direction,1371,,,,,2022-06-26 18:49:23,37434
5fb5e070ad83631f08d83322,ma_choice_v4_movies_pilot4,5fb5e070ad83631f08d83322,4,artistic,1,Moderate,Good,direction,1294,,,,,2022-06-26 18:49:24,37435
6284030f1eb519a3738997bf,ma_choice_v4_movies_pilot4,6284030f1eb519a3738997bf,1,funny,1,Very Bad,Bad,direction,2845,,,,,2022-06-26 18:49:25,37436
5fb5e070ad83631f08d83322,ma_choice_v4_movies_pilot4,5fb5e070ad83631f08d83322,4,artistic,1,Good,Very Good,direction,1335,,,,,2022-06-26 18:49:25,37437
6284030f1eb519a3738997bf,ma_choice_v4_movies_pilot4,6284030f1eb519a3738997bf,1,funny,1,Bad,Moderate,direction,3346,,,,,2022-06-26 18:49:28,37438
5fb5e070ad83631f08d83322,ma_choice_v4_movies_pilot4,5fb5e070ad83631f08d83322,5,good action,1,Very Bad,Very Good,direction,2388,,,,,2022-06-26 18:49:29,37439
5fb5e070ad83631f08d83322,ma_choice_v4_movies_pilot4,5fb5e070ad83631f08d83322,5,good action,1,Very Bad,Bad,direction,1420,,,,,2022-06-26 18:49:30,37440
5fb5e070ad83631f08d83322,ma_choice_v4_movies_pilot4,5fb5e070ad83631f08d83322,5,good action,1,Bad,Moderate,direction,1317,,,,,2022-06-26 18:49:31,37441
6284030f1eb519a3738997bf,ma_choice_v4_movies_pilot4,6284030f1eb519a3738997bf,1,funny,1,Moderate,Good,direction,4313,,,,,2022-06-26 18:49:32,37442
5fb5e070ad83631f08d83322,ma_choice_v4_movies_pilot4,5fb5e070ad83631f08d83322,5,good action,1,Moderate,Good,direction,1263,,,,,2022-06-26 18:49:33,37443
6284030f1eb519a3738997bf,ma_choice_v4_movies_pilot4,6284030f1eb519a3738997bf,1,funny,1,Good,Very Good,direction,1478,,,,,2022-06-26 18:49:34,37444
5fb5e070ad83631f08d83322,ma_choice_v4_movies_pilot4,5fb5e070ad83631f08d83322,5,good action,1,Good,Very Good,direction,1439,,,,,2022-06-26 18:49:34,37445
6284030f1eb519a3738997bf,ma_choice_v4_movies_pilot4,6284030f1eb519a3738997bf,2,romantic,1,Very Bad,Very Good,direction,1464,,,,,2022-06-26 18:49:36,37446
5fb5e070ad83631f08d83322,ma_choice_v4_movies_pilot4,5fb5e070ad83631f08d83322,6,romantic,1,Very Bad,Very Good,direction,2033,,,,,2022-06-26 18:49:37,37447
6284030f1eb519a3738997bf,ma_choice_v4_movies_pilot4,6284030f1eb519a3738997bf,2,romantic,1,Very Bad,Bad,direction,1346,,,,,2022-06-26 18:49:38,37448
6284030f1eb519a3738997bf,ma_choice_v4_movies_pilot4,6284030f1eb519a3738997bf,2,romantic,1,Bad,Moderate,direction,1562,,,,,2022-06-26 18:49:39,37449
5fb5e070ad83631f08d83322,ma_choice_v4_movies_pilot4,5fb5e070ad83631f08d83322,6,romantic,1,Very Bad,Bad,direction,3046,,,,,2022-06-26 18:49:40,37450
6284030f1eb519a3738997bf,ma_choice_v4_movies_pilot4,6284030f1eb519a3738997bf,2,romantic,1,Moderate,Good,direction,1396,,,,,2022-06-26 18:49:41,37451
5fb5e070ad83631f08d83322,ma_choice_v4_movies_pilot4,5fb5e070ad83631f08d83322,6,romantic,1,Bad,Moderate,direction,1920,,,,,2022-06-26 18:49:42,37452
6284030f1eb519a3738997bf,ma_choice_v4_movies_pilot4,6284030f1eb519a3738997bf,2,romantic,1,Good,Very Good,direction,1445,,,,,2022-06-26 18:49:42,37453
5fb5e070ad83631f08d83322,ma_choice_v4_movies_pilot4,5fb5e070ad83631f08d83322,6,romantic,1,Moderate,Good,direction,1459,,,,,2022-06-26 18:49:43,37454
5fb5e070ad83631f08d83322,ma_choice_v4_movies_pilot4,5fb5e070ad83631f08d83322,6,romantic,1,Good,Very Good,direction,1415,,,,,2022-06-26 18:49:45,37455
6284030f1eb519a3738997bf,ma_choice_v4_movies_pilot4,6284030f1eb519a3738997bf,3,good action,1,Very Bad,Very Good,direction,2032,,,,,2022-06-26 18:49:45,37456
6284030f1eb519a3738997bf,ma_choice_v4_movies_pilot4,6284030f1eb519a3738997bf,3,good action,1,Very Bad,Bad,direction,1562,,,,,2022-06-26 18:49:46,37457
5fb5e070ad83631f08d83322,ma_choice_v4_movies_pilot4,5fb5e070ad83631f08d83322,7,dialogue,1,Very Bad,Very Good,direction,1409,,,,,2022-06-26 18:49:47,37458
6284030f1eb519a3738997bf,ma_choice_v4_movies_pilot4,6284030f1eb519a3738997bf,3,good action,1,Bad,Moderate,direction,1330,,,,,2022-06-26 18:49:48,37459
5fb5e070ad83631f08d83322,ma_choice_v4_movies_pilot4,5fb5e070ad83631f08d83322,7,dialogue,1,Very Bad,Bad,direction,1667,,,,,2022-06-26 18:49:48,37460
6284030f1eb519a3738997bf,ma_choice_v4_movies_pilot4,6284030f1eb519a3738997bf,3,good action,1,Moderate,Good,direction,1345,,,,,2022-06-26 18:49:49,37461
5fb5e070ad83631f08d83322,ma_choice_v4_movies_pilot4,5fb5e070ad83631f08d83322,7,dialogue,1,Bad,Moderate,direction,1313,,,,,2022-06-26 18:49:50,37462
6284030f1eb519a3738997bf,ma_choice_v4_movies_pilot4,6284030f1eb519a3738997bf,3,good action,1,Good,Very Good,direction,1278,,,,,2022-06-26 18:49:50,37463
5fb5e070ad83631f08d83322,ma_choice_v4_movies_pilot4,5fb5e070ad83631f08d83322,7,dialogue,1,Moderate,Good,direction,1791,,,,,2022-06-26 18:49:52,37464
6284030f1eb519a3738997bf,ma_choice_v4_movies_pilot4,6284030f1eb519a3738997bf,4,plot,1,Very Bad,Very Good,direction,1181,,,,,2022-06-26 18:49:52,37465
5fb5e070ad83631f08d83322,ma_choice_v4_movies_pilot4,5fb5e070ad83631f08d83322,7,dialogue,1,Good,Very Good,direction,1652,,,,,2022-06-26 18:49:53,37466
6284030f1eb519a3738997bf,ma_choice_v4_movies_pilot4,6284030f1eb519a3738997bf,4,plot,1,Very Bad,Bad,direction,1596,,,,,2022-06-26 18:49:54,37467
6284030f1eb519a3738997bf,ma_choice_v4_movies_pilot4,6284030f1eb519a3738997bf,4,plot,1,Bad,Moderate,direction,1162,,,,,2022-06-26 18:49:55,37468
5fb5e070ad83631f08d83322,ma_choice_v4_movies_pilot4,5fb5e070ad83631f08d83322,8,awesome soundtrack,1,Very Bad,Very Good,direction,2136,,,,,2022-06-26 18:49:56,37469
6284030f1eb519a3738997bf,ma_choice_v4_movies_pilot4,6284030f1eb519a3738997bf,4,plot,1,Moderate,Good,direction,1079,,,,,2022-06-26 18:49:56,37470
6284030f1eb519a3738997bf,ma_choice_v4_movies_pilot4,6284030f1eb519a3738997bf,4,plot,1,Good,Very Good,direction,978,,,,,2022-06-26 18:49:57,37471
5fb5e070ad83631f08d83322,ma_choice_v4_movies_pilot4,5fb5e070ad83631f08d83322,8,awesome soundtrack,1,Very Bad,Bad,direction,1800,,,,,2022-06-26 18:49:58,37472
6284030f1eb519a3738997bf,ma_choice_v4_movies_pilot4,6284030f1eb519a3738997bf,5,awesome soundtrack,1,Very Bad,Very Good,direction,1530,,,,,2022-06-26 18:49:59,37473
5fb5e070ad83631f08d83322,ma_choice_v4_movies_pilot4,5fb5e070ad83631f08d83322,8,awesome soundtrack,1,Bad,Moderate,direction,1867,,,,,2022-06-26 18:50:00,37474
6284030f1eb519a3738997bf,ma_choice_v4_movies_pilot4,6284030f1eb519a3738997bf,5,awesome soundtrack,1,Very Bad,Bad,direction,1529,,,,,2022-06-26 18:50:01,37475
5fb5e070ad83631f08d83322,ma_choice_v4_movies_pilot4,5fb5e070ad83631f08d83322,8,awesome soundtrack,1,Moderate,Good,direction,1696,,,,,2022-06-26 18:50:01,37476
6284030f1eb519a3738997bf,ma_choice_v4_movies_pilot4,6284030f1eb519a3738997bf,5,awesome soundtrack,1,Bad,Moderate,direction,1646,,,,,2022-06-26 18:50:03,37477
5fb5e070ad83631f08d83322,ma_choice_v4_movies_pilot4,5fb5e070ad83631f08d83322,8,awesome soundtrack,1,Good,Very Good,direction,1988,,,,,2022-06-26 18:50:03,37478
6284030f1eb519a3738997bf,ma_choice_v4_movies_pilot4,6284030f1eb519a3738997bf,5,awesome soundtrack,1,Moderate,Good,direction,1330,,,,,2022-06-26 18:50:04,37479
6284030f1eb519a3738997bf,ma_choice_v4_movies_pilot4,6284030f1eb519a3738997bf,5,awesome soundtrack,1,Good,Very Good,direction,1079,,,,,2022-06-26 18:50:05,37480
6284030f1eb519a3738997bf,ma_choice_v4_movies_pilot4,6284030f1eb519a3738997bf,6,visual,1,Very Bad,Very Good,direction,1198,,,,,2022-06-26 18:50:07,37481
6284030f1eb519a3738997bf,ma_choice_v4_movies_pilot4,6284030f1eb519a3738997bf,6,visual,1,Very Bad,Bad,direction,1562,,,,,2022-06-26 18:50:08,37482
6284030f1eb519a3738997bf,ma_choice_v4_movies_pilot4,6284030f1eb519a3738997bf,6,visual,1,Bad,Moderate,direction,1162,,,,,2022-06-26 18:50:10,37483
6284030f1eb519a3738997bf,ma_choice_v4_movies_pilot4,6284030f1eb519a3738997bf,6,visual,1,Moderate,Good,direction,1196,,,,,2022-06-26 18:50:11,37484
6284030f1eb519a3738997bf,ma_choice_v4_movies_pilot4,6284030f1eb519a3738997bf,6,visual,1,Good,Very Good,direction,913,,,,,2022-06-26 18:50:12,37485
6284030f1eb519a3738997bf,ma_choice_v4_movies_pilot4,6284030f1eb519a3738997bf,7,artistic,1,Very Bad,Very Good,direction,1531,,,,,2022-06-26 18:50:14,37486
6284030f1eb519a3738997bf,ma_choice_v4_movies_pilot4,6284030f1eb519a3738997bf,7,artistic,1,Very Bad,Bad,direction,1063,,,,,2022-06-26 18:50:15,37487
6284030f1eb519a3738997bf,ma_choice_v4_movies_pilot4,6284030f1eb519a3738997bf,7,artistic,1,Bad,Moderate,direction,962,,,,,2022-06-26 18:50:16,37488
6284030f1eb519a3738997bf,ma_choice_v4_movies_pilot4,6284030f1eb519a3738997bf,7,artistic,1,Moderate,Good,direction,1529,,,,,2022-06-26 18:50:18,37489
6284030f1eb519a3738997bf,ma_choice_v4_movies_pilot4,6284030f1eb519a3738997bf,7,artistic,1,Good,Very Good,direction,1563,,,,,2022-06-26 18:50:19,37490
6284030f1eb519a3738997bf,ma_choice_v4_movies_pilot4,6284030f1eb519a3738997bf,8,great acting,1,Very Bad,Very Good,direction,1031,,,,,2022-06-26 18:50:21,37491
6284030f1eb519a3738997bf,ma_choice_v4_movies_pilot4,6284030f1eb519a3738997bf,8,great acting,1,Very Bad,Bad,direction,1162,,,,,2022-06-26 18:50:22,37492
6284030f1eb519a3738997bf,ma_choice_v4_movies_pilot4,6284030f1eb519a3738997bf,8,great acting,1,Bad,Moderate,direction,1012,,,,,2022-06-26 18:50:23,37493
6284030f1eb519a3738997bf,ma_choice_v4_movies_pilot4,6284030f1eb519a3738997bf,8,great acting,1,Moderate,Good,direction,1012,,,,,2022-06-26 18:50:24,37494
6284030f1eb519a3738997bf,ma_choice_v4_movies_pilot4,6284030f1eb519a3738997bf,8,great acting,1,Good,Very Good,direction,1179,,,,,2022-06-26 18:50:25,37495
6154d20a40852bcd6ed5a3ec,ma_choice_v4_movies_pilot4,6154d20a40852bcd6ed5a3ec,0,artistic,50,,,wad_att_rating,4509,,,,,2022-06-26 18:52:35,37496
6154d20a40852bcd6ed5a3ec,ma_choice_v4_movies_pilot4,6154d20a40852bcd6ed5a3ec,3,visual,77,,,wad_att_rating,2896,,,,,2022-06-26 18:52:38,37497
6154d20a40852bcd6ed5a3ec,ma_choice_v4_movies_pilot4,6154d20a40852bcd6ed5a3ec,8,good action,33,,,wad_att_rating,2353,,,,,2022-06-26 18:52:40,37498
6154d20a40852bcd6ed5a3ec,ma_choice_v4_movies_pilot4,6154d20a40852bcd6ed5a3ec,5,plot,86,,,wad_att_rating,2787,,,,,2022-06-26 18:52:43,37499
6154d20a40852bcd6ed5a3ec,ma_choice_v4_movies_pilot4,6154d20a40852bcd6ed5a3ec,6,dialogue,38,,,wad_att_rating,2429,,,,,2022-06-26 18:52:46,37500
6154d20a40852bcd6ed5a3ec,ma_choice_v4_movies_pilot4,6154d20a40852bcd6ed5a3ec,2,romantic,29,,,wad_att_rating,3578,,,,,2022-06-26 18:52:49,37501
6154d20a40852bcd6ed5a3ec,ma_choice_v4_movies_pilot4,6154d20a40852bcd6ed5a3ec,4,great acting,56,,,wad_att_rating,2775,,,,,2022-06-26 18:52:52,37502
6154d20a40852bcd6ed5a3ec,ma_choice_v4_movies_pilot4,6154d20a40852bcd6ed5a3ec,1,funny,31,,,wad_att_rating,2371,,,,,2022-06-26 18:52:54,37503
6154d20a40852bcd6ed5a3ec,ma_choice_v4_movies_pilot4,6154d20a40852bcd6ed5a3ec,7,awesome soundtrack,100,,,wad_att_rating,2948,,,,,2022-06-26 18:52:57,37504
6154d20a40852bcd6ed5a3ec,ma_choice_v4_movies_pilot4,6154d20a40852bcd6ed5a3ec,0,Soundtrack,1,,,ew_att_rating,4756,,,,,2022-06-26 18:53:06,37505
6154d20a40852bcd6ed5a3ec,ma_choice_v4_movies_pilot4,6154d20a40852bcd6ed5a3ec,0,Plot,1,,,ew_att_rating,4756,,,,,2022-06-26 18:53:06,37506
6154d20a40852bcd6ed5a3ec,ma_choice_v4_movies_pilot4,6154d20a40852bcd6ed5a3ec,0,Soundtrack,1,,,lex_att_rating,3094,,,,,2022-06-26 18:53:12,37507
6100d7fb6ea88beb0124ef98,ma_choice_v4_movies_pilot4,6100d7fb6ea88beb0124ef98,0,Creativity,1,,,ew_att_rating,14905,,,,,2022-06-26 18:54:59,37508
6100d7fb6ea88beb0124ef98,ma_choice_v4_movies_pilot4,6100d7fb6ea88beb0124ef98,0,Plot,1,,,ew_att_rating,14905,,,,,2022-06-26 18:54:59,37509
6100d7fb6ea88beb0124ef98,ma_choice_v4_movies_pilot4,6100d7fb6ea88beb0124ef98,0,Dialogue,1,,,ew_att_rating,14905,,,,,2022-06-26 18:54:59,37510
6100d7fb6ea88beb0124ef98,ma_choice_v4_movies_pilot4,6100d7fb6ea88beb0124ef98,0,Acting,1,,,ew_att_rating,14905,,,,,2022-06-26 18:54:59,37511
6100d7fb6ea88beb0124ef98,ma_choice_v4_movies_pilot4,6100d7fb6ea88beb0124ef98,3,visual,50,,,wad_att_rating,9454,,,,,2022-06-26 18:55:18,37512
6100d7fb6ea88beb0124ef98,ma_choice_v4_movies_pilot4,6100d7fb6ea88beb0124ef98,7,awesome soundtrack,25,,,wad_att_rating,3894,,,,,2022-06-26 18:55:22,37513
6100d7fb6ea88beb0124ef98,ma_choice_v4_movies_pilot4,6100d7fb6ea88beb0124ef98,5,plot,88,,,wad_att_rating,6558,,,,,2022-06-26 18:55:29,37514
6154d20a40852bcd6ed5a3ec,ma_choice_v4_movies_pilot4,6154d20a40852bcd6ed5a3ec,0,romantic,1,Very Bad,Very Good,direction,5809,,,,,2022-06-26 18:55:31,37515
6100d7fb6ea88beb0124ef98,ma_choice_v4_movies_pilot4,6100d7fb6ea88beb0124ef98,8,good action,25,,,wad_att_rating,5153,,,,,2022-06-26 18:55:34,37516
6154d20a40852bcd6ed5a3ec,ma_choice_v4_movies_pilot4,6154d20a40852bcd6ed5a3ec,0,romantic,1,Very Bad,Bad,direction,4907,,,,,2022-06-26 18:55:36,37517
6154d20a40852bcd6ed5a3ec,ma_choice_v4_movies_pilot4,6154d20a40852bcd6ed5a3ec,0,romantic,1,Bad,Moderate,direction,3871,,,,,2022-06-26 18:55:40,37518
6100d7fb6ea88beb0124ef98,ma_choice_v4_movies_pilot4,6100d7fb6ea88beb0124ef98,4,great acting,75,,,wad_att_rating,6475,,,,,2022-06-26 18:55:41,37519
6154d20a40852bcd6ed5a3ec,ma_choice_v4_movies_pilot4,6154d20a40852bcd6ed5a3ec,0,romantic,1,Moderate,Good,direction,1736,,,,,2022-06-26 18:55:41,37520
6154d20a40852bcd6ed5a3ec,ma_choice_v4_movies_pilot4,6154d20a40852bcd6ed5a3ec,0,romantic,1,Good,Very Good,direction,1802,,,,,2022-06-26 18:55:43,37521
6100d7fb6ea88beb0124ef98,ma_choice_v4_movies_pilot4,6100d7fb6ea88beb0124ef98,6,dialogue,63,,,wad_att_rating,5632,,,,,2022-06-26 18:55:46,37522
6154d20a40852bcd6ed5a3ec,ma_choice_v4_movies_pilot4,6154d20a40852bcd6ed5a3ec,1,awesome soundtrack,1,Very Bad,Very Good,direction,2983,,,,,2022-06-26 18:55:48,37523
6154d20a40852bcd6ed5a3ec,ma_choice_v4_movies_pilot4,6154d20a40852bcd6ed5a3ec,1,awesome soundtrack,1,Very Bad,Bad,direction,1901,,,,,2022-06-26 18:55:50,37524
6154d20a40852bcd6ed5a3ec,ma_choice_v4_movies_pilot4,6154d20a40852bcd6ed5a3ec,1,awesome soundtrack,1,Bad,Moderate,direction,1487,,,,,2022-06-26 18:55:51,37525
6154d20a40852bcd6ed5a3ec,ma_choice_v4_movies_pilot4,6154d20a40852bcd6ed5a3ec,1,awesome soundtrack,1,Moderate,Good,direction,1489,,,,,2022-06-26 18:55:53,37526
6100d7fb6ea88beb0124ef98,ma_choice_v4_movies_pilot4,6100d7fb6ea88beb0124ef98,0,artistic,63,,,wad_att_rating,7934,,,,,2022-06-26 18:55:54,37527
6154d20a40852bcd6ed5a3ec,ma_choice_v4_movies_pilot4,6154d20a40852bcd6ed5a3ec,1,awesome soundtrack,1,Good,Very Good,direction,1810,,,,,2022-06-26 18:55:55,37528
6100d7fb6ea88beb0124ef98,ma_choice_v4_movies_pilot4,6100d7fb6ea88beb0124ef98,1,funny,12,,,wad_att_rating,4506,,,,,2022-06-26 18:55:59,37529
6154d20a40852bcd6ed5a3ec,ma_choice_v4_movies_pilot4,6154d20a40852bcd6ed5a3ec,2,great acting,1,Very Bad,Very Good,direction,3241,,,,,2022-06-26 18:55:59,37530
6154d20a40852bcd6ed5a3ec,ma_choice_v4_movies_pilot4,6154d20a40852bcd6ed5a3ec,2,great acting,1,Very Bad,Bad,direction,1402,,,,,2022-06-26 18:56:00,37531
6100d7fb6ea88beb0124ef98,ma_choice_v4_movies_pilot4,6100d7fb6ea88beb0124ef98,2,romantic,0,,,wad_att_rating,2110,,,,,2022-06-26 18:56:01,37532
6154d20a40852bcd6ed5a3ec,ma_choice_v4_movies_pilot4,6154d20a40852bcd6ed5a3ec,2,great acting,1,Bad,Moderate,direction,1262,,,,,2022-06-26 18:56:01,37533
6154d20a40852bcd6ed5a3ec,ma_choice_v4_movies_pilot4,6154d20a40852bcd6ed5a3ec,2,great acting,1,Moderate,Good,direction,1090,,,,,2022-06-26 18:56:03,37534
6154d20a40852bcd6ed5a3ec,ma_choice_v4_movies_pilot4,6154d20a40852bcd6ed5a3ec,2,great acting,1,Good,Very Good,direction,1307,,,,,2022-06-26 18:56:04,37535
6154d20a40852bcd6ed5a3ec,ma_choice_v4_movies_pilot4,6154d20a40852bcd6ed5a3ec,3,dialogue,1,Very Bad,Very Good,direction,1391,,,,,2022-06-26 18:56:06,37536
6154d20a40852bcd6ed5a3ec,ma_choice_v4_movies_pilot4,6154d20a40852bcd6ed5a3ec,3,dialogue,1,Very Bad,Bad,direction,1107,,,,,2022-06-26 18:56:07,37537
6154d20a40852bcd6ed5a3ec,ma_choice_v4_movies_pilot4,6154d20a40852bcd6ed5a3ec,3,dialogue,1,Bad,Moderate,direction,1145,,,,,2022-06-26 18:56:08,37538
6154d20a40852bcd6ed5a3ec,ma_choice_v4_movies_pilot4,6154d20a40852bcd6ed5a3ec,3,dialogue,1,Moderate,Good,direction,1256,,,,,2022-06-26 18:56:10,37539
6154d20a40852bcd6ed5a3ec,ma_choice_v4_movies_pilot4,6154d20a40852bcd6ed5a3ec,3,dialogue,1,Good,Very Good,direction,1195,,,,,2022-06-26 18:56:11,37540
6154d20a40852bcd6ed5a3ec,ma_choice_v4_movies_pilot4,6154d20a40852bcd6ed5a3ec,4,good action,1,Very Bad,Very Good,direction,1596,,,,,2022-06-26 18:56:14,37541
6154d20a40852bcd6ed5a3ec,ma_choice_v4_movies_pilot4,6154d20a40852bcd6ed5a3ec,4,good action,1,Very Bad,Bad,direction,1536,,,,,2022-06-26 18:56:15,37542
6154d20a40852bcd6ed5a3ec,ma_choice_v4_movies_pilot4,6154d20a40852bcd6ed5a3ec,4,good action,1,Bad,Moderate,direction,1086,,,,,2022-06-26 18:56:16,37543
6154d20a40852bcd6ed5a3ec,ma_choice_v4_movies_pilot4,6154d20a40852bcd6ed5a3ec,4,good action,1,Moderate,Good,direction,1190,,,,,2022-06-26 18:56:17,37544
6100d7fb6ea88beb0124ef98,ma_choice_v4_movies_pilot4,6100d7fb6ea88beb0124ef98,0,Plot,1,,,lex_att_rating,7193,,,,,2022-06-26 18:56:18,37545
6154d20a40852bcd6ed5a3ec,ma_choice_v4_movies_pilot4,6154d20a40852bcd6ed5a3ec,4,good action,1,Good,Very Good,direction,992,,,,,2022-06-26 18:56:18,37546
6154d20a40852bcd6ed5a3ec,ma_choice_v4_movies_pilot4,6154d20a40852bcd6ed5a3ec,5,artistic,1,Very Bad,Very Good,direction,1324,,,,,2022-06-26 18:56:21,37547
6154d20a40852bcd6ed5a3ec,ma_choice_v4_movies_pilot4,6154d20a40852bcd6ed5a3ec,5,artistic,1,Very Bad,Bad,direction,1056,,,,,2022-06-26 18:56:22,37548
5f121091e95fdc03b5e897d0,ma_choice_v4_movies_pilot4,5f121091e95fdc03b5e897d0,0,Soundtrack,1,,,lex_att_rating,8232,,,,,2022-06-26 18:56:23,37549
6154d20a40852bcd6ed5a3ec,ma_choice_v4_movies_pilot4,6154d20a40852bcd6ed5a3ec,5,artistic,1,Bad,Moderate,direction,1547,,,,,2022-06-26 18:56:23,37550
6154d20a40852bcd6ed5a3ec,ma_choice_v4_movies_pilot4,6154d20a40852bcd6ed5a3ec,5,artistic,1,Moderate,Good,direction,1691,,,,,2022-06-26 18:56:25,37551
6154d20a40852bcd6ed5a3ec,ma_choice_v4_movies_pilot4,6154d20a40852bcd6ed5a3ec,5,artistic,1,Good,Very Good,direction,1167,,,,,2022-06-26 18:56:26,37552
6154d20a40852bcd6ed5a3ec,ma_choice_v4_movies_pilot4,6154d20a40852bcd6ed5a3ec,6,plot,1,Very Bad,Very Good,direction,1179,,,,,2022-06-26 18:56:29,37553
6154d20a40852bcd6ed5a3ec,ma_choice_v4_movies_pilot4,6154d20a40852bcd6ed5a3ec,6,plot,1,Very Bad,Bad,direction,1066,,,,,2022-06-26 18:56:30,37554
6154d20a40852bcd6ed5a3ec,ma_choice_v4_movies_pilot4,6154d20a40852bcd6ed5a3ec,6,plot,1,Bad,Moderate,direction,1228,,,,,2022-06-26 18:56:31,37555
6154d20a40852bcd6ed5a3ec,ma_choice_v4_movies_pilot4,6154d20a40852bcd6ed5a3ec,6,plot,1,Moderate,Good,direction,1039,,,,,2022-06-26 18:56:32,37556
6154d20a40852bcd6ed5a3ec,ma_choice_v4_movies_pilot4,6154d20a40852bcd6ed5a3ec,6,plot,1,Good,Very Good,direction,987,,,,,2022-06-26 18:56:33,37557
5f121091e95fdc03b5e897d0,ma_choice_v4_movies_pilot4,5f121091e95fdc03b5e897d0,5,plot,17,,,wad_att_rating,6008,,,,,2022-06-26 18:56:34,37558
6154d20a40852bcd6ed5a3ec,ma_choice_v4_movies_pilot4,6154d20a40852bcd6ed5a3ec,7,visual,1,Very Bad,Very Good,direction,1233,,,,,2022-06-26 18:56:35,37559
6154d20a40852bcd6ed5a3ec,ma_choice_v4_movies_pilot4,6154d20a40852bcd6ed5a3ec,7,visual,1,Very Bad,Bad,direction,1012,,,,,2022-06-26 18:56:36,37560
6154d20a40852bcd6ed5a3ec,ma_choice_v4_movies_pilot4,6154d20a40852bcd6ed5a3ec,7,visual,1,Bad,Moderate,direction,1210,,,,,2022-06-26 18:56:37,37561
6154d20a40852bcd6ed5a3ec,ma_choice_v4_movies_pilot4,6154d20a40852bcd6ed5a3ec,7,visual,1,Moderate,Good,direction,1290,,,,,2022-06-26 18:56:39,37562
6154d20a40852bcd6ed5a3ec,ma_choice_v4_movies_pilot4,6154d20a40852bcd6ed5a3ec,7,visual,1,Good,Very Good,direction,1046,,,,,2022-06-26 18:56:40,37563
5f121091e95fdc03b5e897d0,ma_choice_v4_movies_pilot4,5f121091e95fdc03b5e897d0,2,romantic,93,,,wad_att_rating,6703,,,,,2022-06-26 18:56:41,37564
6154d20a40852bcd6ed5a3ec,ma_choice_v4_movies_pilot4,6154d20a40852bcd6ed5a3ec,8,funny,1,Very Bad,Very Good,direction,992,,,,,2022-06-26 18:56:42,37565
6154d20a40852bcd6ed5a3ec,ma_choice_v4_movies_pilot4,6154d20a40852bcd6ed5a3ec,8,funny,1,Very Bad,Bad,direction,1068,,,,,2022-06-26 18:56:43,37566
6154d20a40852bcd6ed5a3ec,ma_choice_v4_movies_pilot4,6154d20a40852bcd6ed5a3ec,8,funny,1,Bad,Moderate,direction,1042,,,,,2022-06-26 18:56:44,37567
6154d20a40852bcd6ed5a3ec,ma_choice_v4_movies_pilot4,6154d20a40852bcd6ed5a3ec,8,funny,1,Moderate,Good,direction,1069,,,,,2022-06-26 18:56:45,37568
5f121091e95fdc03b5e897d0,ma_choice_v4_movies_pilot4,5f121091e95fdc03b5e897d0,7,awesome soundtrack,96,,,wad_att_rating,4067,,,,,2022-06-26 18:56:45,37569
6154d20a40852bcd6ed5a3ec,ma_choice_v4_movies_pilot4,6154d20a40852bcd6ed5a3ec,8,funny,1,Good,Very Good,direction,1069,,,,,2022-06-26 18:56:46,37570
5f121091e95fdc03b5e897d0,ma_choice_v4_movies_pilot4,5f121091e95fdc03b5e897d0,6,dialogue,7,,,wad_att_rating,3200,,,,,2022-06-26 18:56:48,37571
5f121091e95fdc03b5e897d0,ma_choice_v4_movies_pilot4,5f121091e95fdc03b5e897d0,1,funny,7,,,wad_att_rating,3501,,,,,2022-06-26 18:56:52,37572
5f121091e95fdc03b5e897d0,ma_choice_v4_movies_pilot4,5f121091e95fdc03b5e897d0,0,artistic,6,,,wad_att_rating,3843,,,,,2022-06-26 18:56:56,37573
5f121091e95fdc03b5e897d0,ma_choice_v4_movies_pilot4,5f121091e95fdc03b5e897d0,3,visual,5,,,wad_att_rating,3236,,,,,2022-06-26 18:56:59,37574
5f121091e95fdc03b5e897d0,ma_choice_v4_movies_pilot4,5f121091e95fdc03b5e897d0,4,great acting,7,,,wad_att_rating,3125,,,,,2022-06-26 18:57:02,37575
5f121091e95fdc03b5e897d0,ma_choice_v4_movies_pilot4,5f121091e95fdc03b5e897d0,8,good action,8,,,wad_att_rating,3887,,,,,2022-06-26 18:57:06,37576
5f121091e95fdc03b5e897d0,ma_choice_v4_movies_pilot4,5f121091e95fdc03b5e897d0,0,Soundtrack,1,,,ew_att_rating,11456,,,,,2022-06-26 18:57:25,37577
5f121091e95fdc03b5e897d0,ma_choice_v4_movies_pilot4,5f121091e95fdc03b5e897d0,0,Romantic Scenes,1,,,ew_att_rating,11456,,,,,2022-06-26 18:57:25,37578
6100d7fb6ea88beb0124ef98,ma_choice_v4_movies_pilot4,6100d7fb6ea88beb0124ef98,0,dialogue,1,Very Bad,Very Good,direction,15704,,,,,2022-06-26 19:03:22,37579
6100d7fb6ea88beb0124ef98,ma_choice_v4_movies_pilot4,6100d7fb6ea88beb0124ef98,0,dialogue,1,Very Bad,Bad,direction,12601,,,,,2022-06-26 19:03:34,37580
5d0fc3b267111c001a633eb8,ma_choice_v4_movies_pilot4,5d0fc3b267111c001a633eb8,0,Creativity,1,,,ew_att_rating,3706,,,,,2022-06-26 19:03:40,37581
5d0fc3b267111c001a633eb8,ma_choice_v4_movies_pilot4,5d0fc3b267111c001a633eb8,0,Humor,1,,,ew_att_rating,3706,,,,,2022-06-26 19:03:40,37582
6100d7fb6ea88beb0124ef98,ma_choice_v4_movies_pilot4,6100d7fb6ea88beb0124ef98,0,dialogue,1,Bad,Moderate,direction,10510,,,,,2022-06-26 19:03:45,37583
5d0fc3b267111c001a633eb8,ma_choice_v4_movies_pilot4,5d0fc3b267111c001a633eb8,0,Humor,1,,,lex_att_rating,3510,,,,,2022-06-26 19:03:50,37584
6100d7fb6ea88beb0124ef98,ma_choice_v4_movies_pilot4,6100d7fb6ea88beb0124ef98,0,dialogue,1,Moderate,Good,direction,8721,,,,,2022-06-26 19:03:53,37585
5d0fc3b267111c001a633eb8,ma_choice_v4_movies_pilot4,5d0fc3b267111c001a633eb8,0,artistic,26,,,wad_att_rating,4901,,,,,2022-06-26 19:03:59,37586
6100d7fb6ea88beb0124ef98,ma_choice_v4_movies_pilot4,6100d7fb6ea88beb0124ef98,0,dialogue,1,Good,Very Good,direction,6855,,,,,2022-06-26 19:04:00,37587
5d0fc3b267111c001a633eb8,ma_choice_v4_movies_pilot4,5d0fc3b267111c001a633eb8,4,great acting,0,,,wad_att_rating,2908,,,,,2022-06-26 19:04:02,37588
5d0fc3b267111c001a633eb8,ma_choice_v4_movies_pilot4,5d0fc3b267111c001a633eb8,7,awesome soundtrack,0,,,wad_att_rating,2492,,,,,2022-06-26 19:04:05,37589
5d0fc3b267111c001a633eb8,ma_choice_v4_movies_pilot4,5d0fc3b267111c001a633eb8,8,good action,0,,,wad_att_rating,2692,,,,,2022-06-26 19:04:07,37590
6100d7fb6ea88beb0124ef98,ma_choice_v4_movies_pilot4,6100d7fb6ea88beb0124ef98,1,artistic,1,Very Bad,Very Good,direction,7420,,,,,2022-06-26 19:04:10,37591
5d0fc3b267111c001a633eb8,ma_choice_v4_movies_pilot4,5d0fc3b267111c001a633eb8,2,romantic,0,,,wad_att_rating,3012,,,,,2022-06-26 19:04:10,37592
5d0fc3b267111c001a633eb8,ma_choice_v4_movies_pilot4,5d0fc3b267111c001a633eb8,5,plot,0,,,wad_att_rating,3517,,,,,2022-06-26 19:04:14,37593
5ba18771e671c600012322e4,ma_choice_v4_movies_pilot4,5ba18771e671c600012322e4,8,good action,51,,,wad_att_rating,6482,,,,,2022-06-26 19:04:14,37594
5d0fc3b267111c001a633eb8,ma_choice_v4_movies_pilot4,5d0fc3b267111c001a633eb8,3,visual,0,,,wad_att_rating,2052,,,,,2022-06-26 19:04:16,37595
6100d7fb6ea88beb0124ef98,ma_choice_v4_movies_pilot4,6100d7fb6ea88beb0124ef98,1,artistic,1,Very Bad,Bad,direction,7199,,,,,2022-06-26 19:04:17,37596
5d0fc3b267111c001a633eb8,ma_choice_v4_movies_pilot4,5d0fc3b267111c001a633eb8,6,dialogue,0,,,wad_att_rating,2964,,,,,2022-06-26 19:04:19,37597
5ba18771e671c600012322e4,ma_choice_v4_movies_pilot4,5ba18771e671c600012322e4,7,awesome soundtrack,67,,,wad_att_rating,8823,,,,,2022-06-26 19:04:23,37598
6100d7fb6ea88beb0124ef98,ma_choice_v4_movies_pilot4,6100d7fb6ea88beb0124ef98,1,artistic,1,Bad,Moderate,direction,6696,,,,,2022-06-26 19:04:24,37599
5d0fc3b267111c001a633eb8,ma_choice_v4_movies_pilot4,5d0fc3b267111c001a633eb8,1,funny,90,,,wad_att_rating,5212,,,,,2022-06-26 19:04:24,37600
6100d7fb6ea88beb0124ef98,ma_choice_v4_movies_pilot4,6100d7fb6ea88beb0124ef98,1,artistic,1,Moderate,Good,direction,4340,,,,,2022-06-26 19:04:28,37601
5ba18771e671c600012322e4,ma_choice_v4_movies_pilot4,5ba18771e671c600012322e4,4,great acting,50,,,wad_att_rating,6058,,,,,2022-06-26 19:04:29,37602
5ba18771e671c600012322e4,ma_choice_v4_movies_pilot4,5ba18771e671c600012322e4,2,romantic,12,,,wad_att_rating,4985,,,,,2022-06-26 19:04:34,37603
6100d7fb6ea88beb0124ef98,ma_choice_v4_movies_pilot4,6100d7fb6ea88beb0124ef98,1,artistic,1,Good,Very Good,direction,8101,,,,,2022-06-26 19:04:36,37604
5ba18771e671c600012322e4,ma_choice_v4_movies_pilot4,5ba18771e671c600012322e4,5,plot,62,,,wad_att_rating,3993,,,,,2022-06-26 19:04:38,37605
5ba18771e671c600012322e4,ma_choice_v4_movies_pilot4,5ba18771e671c600012322e4,6,dialogue,49,,,wad_att_rating,3876,,,,,2022-06-26 19:04:42,37606
6100d7fb6ea88beb0124ef98,ma_choice_v4_movies_pilot4,6100d7fb6ea88beb0124ef98,2,good action,1,Very Bad,Very Good,direction,6379,,,,,2022-06-26 19:04:44,37607
5ba18771e671c600012322e4,ma_choice_v4_movies_pilot4,5ba18771e671c600012322e4,0,artistic,37,,,wad_att_rating,4057,,,,,2022-06-26 19:04:46,37608
5e2631760e122288e0404af7,ma_choice_v4_movies_pilot4,5e2631760e122288e0404af7,0,Plot,1,,,lex_att_rating,4111,,,,,2022-06-26 19:04:47,37609
6100d7fb6ea88beb0124ef98,ma_choice_v4_movies_pilot4,6100d7fb6ea88beb0124ef98,2,good action,1,Very Bad,Bad,direction,5062,,,,,2022-06-26 19:04:49,37610
5ba18771e671c600012322e4,ma_choice_v4_movies_pilot4,5ba18771e671c600012322e4,1,funny,88,,,wad_att_rating,4466,,,,,2022-06-26 19:04:50,37611
5ba18771e671c600012322e4,ma_choice_v4_movies_pilot4,5ba18771e671c600012322e4,3,visual,38,,,wad_att_rating,3107,,,,,2022-06-26 19:04:53,37612
6100d7fb6ea88beb0124ef98,ma_choice_v4_movies_pilot4,6100d7fb6ea88beb0124ef98,2,good action,1,Bad,Moderate,direction,4837,,,,,2022-06-26 19:04:54,37613
5e2631760e122288e0404af7,ma_choice_v4_movies_pilot4,5e2631760e122288e0404af7,0,Dialogue,1,,,ew_att_rating,9951,,,,,2022-06-26 19:05:01,37614
5e2631760e122288e0404af7,ma_choice_v4_movies_pilot4,5e2631760e122288e0404af7,0,Plot,1,,,ew_att_rating,9951,,,,,2022-06-26 19:05:01,37615
5e2631760e122288e0404af7,ma_choice_v4_movies_pilot4,5e2631760e122288e0404af7,0,Visuals,1,,,ew_att_rating,9951,,,,,2022-06-26 19:05:01,37616
5e2631760e122288e0404af7,ma_choice_v4_movies_pilot4,5e2631760e122288e0404af7,0,Acting,1,,,ew_att_rating,9951,,,,,2022-06-26 19:05:01,37617
6100d7fb6ea88beb0124ef98,ma_choice_v4_movies_pilot4,6100d7fb6ea88beb0124ef98,2,good action,1,Moderate,Good,direction,7463,,,,,2022-06-26 19:05:01,37618
6100d7fb6ea88beb0124ef98,ma_choice_v4_movies_pilot4,6100d7fb6ea88beb0124ef98,2,good action,1,Good,Very Good,direction,4715,,,,,2022-06-26 19:05:06,37619
5e2631760e122288e0404af7,ma_choice_v4_movies_pilot4,5e2631760e122288e0404af7,0,artistic,0,,,wad_att_rating,5291,,,,,2022-06-26 19:05:09,37620
5e2631760e122288e0404af7,ma_choice_v4_movies_pilot4,5e2631760e122288e0404af7,8,good action,0,,,wad_att_rating,2626,,,,,2022-06-26 19:05:11,37621
5e2631760e122288e0404af7,ma_choice_v4_movies_pilot4,5e2631760e122288e0404af7,2,romantic,29,,,wad_att_rating,2992,,,,,2022-06-26 19:05:14,37622
6100d7fb6ea88beb0124ef98,ma_choice_v4_movies_pilot4,6100d7fb6ea88beb0124ef98,3,plot,1,Very Bad,Very Good,direction,7909,,,,,2022-06-26 19:05:15,37623
5e2631760e122288e0404af7,ma_choice_v4_movies_pilot4,5e2631760e122288e0404af7,1,funny,35,,,wad_att_rating,2144,,,,,2022-06-26 19:05:16,37624
5e2631760e122288e0404af7,ma_choice_v4_movies_pilot4,5e2631760e122288e0404af7,5,plot,100,,,wad_att_rating,1633,,,,,2022-06-26 19:05:18,37625
5e2631760e122288e0404af7,ma_choice_v4_movies_pilot4,5e2631760e122288e0404af7,4,great acting,100,,,wad_att_rating,1084,,,,,2022-06-26 19:05:19,37626
5e2631760e122288e0404af7,ma_choice_v4_movies_pilot4,5e2631760e122288e0404af7,6,dialogue,0,,,wad_att_rating,104,,,,,2022-06-26 19:05:19,37627
6100d7fb6ea88beb0124ef98,ma_choice_v4_movies_pilot4,6100d7fb6ea88beb0124ef98,3,plot,1,Very Bad,Bad,direction,6836,,,,,2022-06-26 19:05:22,37628
5e2631760e122288e0404af7,ma_choice_v4_movies_pilot4,5e2631760e122288e0404af7,7,awesome soundtrack,14,,,wad_att_rating,4642,,,,,2022-06-26 19:05:24,37629
6100d7fb6ea88beb0124ef98,ma_choice_v4_movies_pilot4,6100d7fb6ea88beb0124ef98,3,plot,1,Bad,Moderate,direction,2331,,,,,2022-06-26 19:05:25,37630
6100d7fb6ea88beb0124ef98,ma_choice_v4_movies_pilot4,6100d7fb6ea88beb0124ef98,3,plot,1,Moderate,Good,direction,3026,,,,,2022-06-26 19:05:28,37631
5e2631760e122288e0404af7,ma_choice_v4_movies_pilot4,5e2631760e122288e0404af7,3,visual,100,,,wad_att_rating,3935,,,,,2022-06-26 19:05:28,37632
6100d7fb6ea88beb0124ef98,ma_choice_v4_movies_pilot4,6100d7fb6ea88beb0124ef98,3,plot,1,Good,Very Good,direction,3762,,,,,2022-06-26 19:05:31,37633
6100d7fb6ea88beb0124ef98,ma_choice_v4_movies_pilot4,6100d7fb6ea88beb0124ef98,4,romantic,1,Very Bad,Very Good,direction,4000,,,,,2022-06-26 19:05:36,37634
6100d7fb6ea88beb0124ef98,ma_choice_v4_movies_pilot4,6100d7fb6ea88beb0124ef98,4,romantic,1,Very Bad,Bad,direction,3569,,,,,2022-06-26 19:05:40,37635
5ba18771e671c600012322e4,ma_choice_v4_movies_pilot4,5ba18771e671c600012322e4,0,Soundtrack,1,,,ew_att_rating,15932,,,,,2022-06-26 19:05:40,37636
5ba18771e671c600012322e4,ma_choice_v4_movies_pilot4,5ba18771e671c600012322e4,0,Humor,1,,,ew_att_rating,15932,,,,,2022-06-26 19:05:40,37637
5ba18771e671c600012322e4,ma_choice_v4_movies_pilot4,5ba18771e671c600012322e4,0,Dialogue,1,,,ew_att_rating,15932,,,,,2022-06-26 19:05:40,37638
5ba18771e671c600012322e4,ma_choice_v4_movies_pilot4,5ba18771e671c600012322e4,0,Acting,1,,,ew_att_rating,15932,,,,,2022-06-26 19:05:40,37639
6100d7fb6ea88beb0124ef98,ma_choice_v4_movies_pilot4,6100d7fb6ea88beb0124ef98,4,romantic,1,Bad,Moderate,direction,4279,,,,,2022-06-26 19:05:44,37640
6107f53623cdcd3f59cb4caf,ma_choice_v4_movies_pilot4,6107f53623cdcd3f59cb4caf,0,Soundtrack,1,,,ew_att_rating,7605,,,,,2022-06-26 19:05:46,37641
6107f53623cdcd3f59cb4caf,ma_choice_v4_movies_pilot4,6107f53623cdcd3f59cb4caf,0,Dialogue,1,,,ew_att_rating,7605,,,,,2022-06-26 19:05:46,37642
6107f53623cdcd3f59cb4caf,ma_choice_v4_movies_pilot4,6107f53623cdcd3f59cb4caf,0,Visuals,1,,,ew_att_rating,7605,,,,,2022-06-26 19:05:46,37643
6100d7fb6ea88beb0124ef98,ma_choice_v4_movies_pilot4,6100d7fb6ea88beb0124ef98,4,romantic,1,Moderate,Good,direction,2325,,,,,2022-06-26 19:05:47,37644
5f121091e95fdc03b5e897d0,ma_choice_v4_movies_pilot4,5f121091e95fdc03b5e897d0,0,plot,1,Very Bad,Very Good,direction,13933,,,,,2022-06-26 19:05:49,37645
6100d7fb6ea88beb0124ef98,ma_choice_v4_movies_pilot4,6100d7fb6ea88beb0124ef98,4,romantic,1,Good,Very Good,direction,2436,,,,,2022-06-26 19:05:49,37646
6100d7fb6ea88beb0124ef98,ma_choice_v4_movies_pilot4,6100d7fb6ea88beb0124ef98,5,funny,1,Very Bad,Very Good,direction,2096,,,,,2022-06-26 19:05:55,37647
5ba18771e671c600012322e4,ma_choice_v4_movies_pilot4,5ba18771e671c600012322e4,0,Humor,1,,,lex_att_rating,10698,,,,,2022-06-26 19:05:57,37648
5f121091e95fdc03b5e897d0,ma_choice_v4_movies_pilot4,5f121091e95fdc03b5e897d0,0,plot,1,Very Bad,Bad,direction,9323,,,,,2022-06-26 19:05:58,37649
6100d7fb6ea88beb0124ef98,ma_choice_v4_movies_pilot4,6100d7fb6ea88beb0124ef98,5,funny,1,Very Bad,Bad,direction,5225,,,,,2022-06-26 19:06:00,37650
5f121091e95fdc03b5e897d0,ma_choice_v4_movies_pilot4,5f121091e95fdc03b5e897d0,0,plot,1,Bad,Moderate,direction,4542,,,,,2022-06-26 19:06:03,37651
6100d7fb6ea88beb0124ef98,ma_choice_v4_movies_pilot4,6100d7fb6ea88beb0124ef98,5,funny,1,Bad,Moderate,direction,2572,,,,,2022-06-26 19:06:03,37652
6107f53623cdcd3f59cb4caf,ma_choice_v4_movies_pilot4,6107f53623cdcd3f59cb4caf,0,Soundtrack,1,,,lex_att_rating,10504,,,,,2022-06-26 19:06:05,37653
6100d7fb6ea88beb0124ef98,ma_choice_v4_movies_pilot4,6100d7fb6ea88beb0124ef98,5,funny,1,Moderate,Good,direction,3869,,,,,2022-06-26 19:06:07,37654
5f121091e95fdc03b5e897d0,ma_choice_v4_movies_pilot4,5f121091e95fdc03b5e897d0,0,plot,1,Moderate,Good,direction,5388,,,,,2022-06-26 19:06:08,37655
6100d7fb6ea88beb0124ef98,ma_choice_v4_movies_pilot4,6100d7fb6ea88beb0124ef98,5,funny,1,Good,Very Good,direction,2533,,,,,2022-06-26 19:06:09,37656
5f121091e95fdc03b5e897d0,ma_choice_v4_movies_pilot4,5f121091e95fdc03b5e897d0,0,plot,1,Good,Very Good,direction,3222,,,,,2022-06-26 19:06:11,37657
5f121091e95fdc03b5e897d0,ma_choice_v4_movies_pilot4,5f121091e95fdc03b5e897d0,1,artistic,1,Very Bad,Very Good,direction,2539,,,,,2022-06-26 19:06:15,37658
6100d7fb6ea88beb0124ef98,ma_choice_v4_movies_pilot4,6100d7fb6ea88beb0124ef98,6,visual,1,Very Bad,Very Good,direction,6949,,,,,2022-06-26 19:06:18,37659
5f121091e95fdc03b5e897d0,ma_choice_v4_movies_pilot4,5f121091e95fdc03b5e897d0,1,artistic,1,Very Bad,Bad,direction,3913,,,,,2022-06-26 19:06:19,37660
6100d7fb6ea88beb0124ef98,ma_choice_v4_movies_pilot4,6100d7fb6ea88beb0124ef98,6,visual,1,Very Bad,Bad,direction,2705,,,,,2022-06-26 19:06:21,37661
5f121091e95fdc03b5e897d0,ma_choice_v4_movies_pilot4,5f121091e95fdc03b5e897d0,1,artistic,1,Bad,Moderate,direction,2945,,,,,2022-06-26 19:06:22,37662
6107f53623cdcd3f59cb4caf,ma_choice_v4_movies_pilot4,6107f53623cdcd3f59cb4caf,8,good action,49,,,wad_att_rating,7992,,,,,2022-06-26 19:06:23,37663
6100d7fb6ea88beb0124ef98,ma_choice_v4_movies_pilot4,6100d7fb6ea88beb0124ef98,6,visual,1,Bad,Moderate,direction,3920,,,,,2022-06-26 19:06:25,37664
5f121091e95fdc03b5e897d0,ma_choice_v4_movies_pilot4,5f121091e95fdc03b5e897d0,1,artistic,1,Moderate,Good,direction,3207,,,,,2022-06-26 19:06:25,37665
6107f53623cdcd3f59cb4caf,ma_choice_v4_movies_pilot4,6107f53623cdcd3f59cb4caf,7,awesome soundtrack,100,,,wad_att_rating,4497,,,,,2022-06-26 19:06:27,37666
6100d7fb6ea88beb0124ef98,ma_choice_v4_movies_pilot4,6100d7fb6ea88beb0124ef98,6,visual,1,Moderate,Good,direction,3283,,,,,2022-06-26 19:06:28,37667
5f121091e95fdc03b5e897d0,ma_choice_v4_movies_pilot4,5f121091e95fdc03b5e897d0,1,artistic,1,Good,Very Good,direction,2600,,,,,2022-06-26 19:06:28,37668
6100d7fb6ea88beb0124ef98,ma_choice_v4_movies_pilot4,6100d7fb6ea88beb0124ef98,6,visual,1,Good,Very Good,direction,2495,,,,,2022-06-26 19:06:30,37669
6107f53623cdcd3f59cb4caf,ma_choice_v4_movies_pilot4,6107f53623cdcd3f59cb4caf,6,dialogue,76,,,wad_att_rating,4338,,,,,2022-06-26 19:06:31,37670
5f121091e95fdc03b5e897d0,ma_choice_v4_movies_pilot4,5f121091e95fdc03b5e897d0,2,romantic,1,Very Bad,Very Good,direction,4031,,,,,2022-06-26 19:06:33,37671
6100d7fb6ea88beb0124ef98,ma_choice_v4_movies_pilot4,6100d7fb6ea88beb0124ef98,7,great acting,1,Very Bad,Very Good,direction,3505,,,,,2022-06-26 19:06:35,37672
6107f53623cdcd3f59cb4caf,ma_choice_v4_movies_pilot4,6107f53623cdcd3f59cb4caf,2,romantic,37,,,wad_att_rating,3962,,,,,2022-06-26 19:06:35,37673
5f121091e95fdc03b5e897d0,ma_choice_v4_movies_pilot4,5f121091e95fdc03b5e897d0,2,romantic,1,Very Bad,Bad,direction,3014,,,,,2022-06-26 19:06:36,37674
5bf5ab78f35e0c000101b657,ma_choice_v4_movies_pilot4,5bf5ab78f35e0c000101b657,0,Humor,1,,,ew_att_rating,4714,,,,,2022-06-26 19:06:38,37675
5bf5ab78f35e0c000101b657,ma_choice_v4_movies_pilot4,5bf5ab78f35e0c000101b657,0,Action Scenes,1,,,ew_att_rating,4714,,,,,2022-06-26 19:06:38,37676
6100d7fb6ea88beb0124ef98,ma_choice_v4_movies_pilot4,6100d7fb6ea88beb0124ef98,7,great acting,1,Very Bad,Bad,direction,3513,,,,,2022-06-26 19:06:38,37677
6107f53623cdcd3f59cb4caf,ma_choice_v4_movies_pilot4,6107f53623cdcd3f59cb4caf,5,plot,62,,,wad_att_rating,3426,,,,,2022-06-26 19:06:39,37678
5f121091e95fdc03b5e897d0,ma_choice_v4_movies_pilot4,5f121091e95fdc03b5e897d0,2,romantic,1,Bad,Moderate,direction,4108,,,,,2022-06-26 19:06:41,37679
6100d7fb6ea88beb0124ef98,ma_choice_v4_movies_pilot4,6100d7fb6ea88beb0124ef98,7,great acting,1,Bad,Moderate,direction,2615,,,,,2022-06-26 19:06:41,37680
5f121091e95fdc03b5e897d0,ma_choice_v4_movies_pilot4,5f121091e95fdc03b5e897d0,2,romantic,1,Moderate,Good,direction,2107,,,,,2022-06-26 19:06:43,37681
6107f53623cdcd3f59cb4caf,ma_choice_v4_movies_pilot4,6107f53623cdcd3f59cb4caf,0,artistic,50,,,wad_att_rating,4250,,,,,2022-06-26 19:06:43,37682
5f121091e95fdc03b5e897d0,ma_choice_v4_movies_pilot4,5f121091e95fdc03b5e897d0,2,romantic,1,Good,Very Good,direction,2116,,,,,2022-06-26 19:06:45,37683
6100d7fb6ea88beb0124ef98,ma_choice_v4_movies_pilot4,6100d7fb6ea88beb0124ef98,7,great acting,1,Moderate,Good,direction,4670,,,,,2022-06-26 19:06:46,37684
6107f53623cdcd3f59cb4caf,ma_choice_v4_movies_pilot4,6107f53623cdcd3f59cb4caf,1,funny,50,,,wad_att_rating,2674,,,,,2022-06-26 19:06:46,37685
5bf5ab78f35e0c000101b657,ma_choice_v4_movies_pilot4,5bf5ab78f35e0c000101b657,0,Action Scenes,1,,,lex_att_rating,2546,,,,,2022-06-26 19:06:46,37686
6107f53623cdcd3f59cb4caf,ma_choice_v4_movies_pilot4,6107f53623cdcd3f59cb4caf,3,visual,75,,,wad_att_rating,2434,,,,,2022-06-26 19:06:48,37687
6100d7fb6ea88beb0124ef98,ma_choice_v4_movies_pilot4,6100d7fb6ea88beb0124ef98,7,great acting,1,Good,Very Good,direction,2571,,,,,2022-06-26 19:06:48,37688
5f121091e95fdc03b5e897d0,ma_choice_v4_movies_pilot4,5f121091e95fdc03b5e897d0,3,good action,0,Very Bad,Very Good,direction,3953,,,,,2022-06-26 19:06:50,37689
6107f53623cdcd3f59cb4caf,ma_choice_v4_movies_pilot4,6107f53623cdcd3f59cb4caf,4,great acting,50,,,wad_att_rating,2555,,,,,2022-06-26 19:06:51,37690
6100d7fb6ea88beb0124ef98,ma_choice_v4_movies_pilot4,6100d7fb6ea88beb0124ef98,8,awesome soundtrack,1,Very Bad,Very Good,direction,2404,,,,,2022-06-26 19:06:52,37691
5f121091e95fdc03b5e897d0,ma_choice_v4_movies_pilot4,5f121091e95fdc03b5e897d0,3,good action,0,Very Bad,Bad,direction,1973,,,,,2022-06-26 19:06:52,37692
5f121091e95fdc03b5e897d0,ma_choice_v4_movies_pilot4,5f121091e95fdc03b5e897d0,3,good action,0,Bad,Moderate,direction,1669,,,,,2022-06-26 19:06:54,37693
6100d7fb6ea88beb0124ef98,ma_choice_v4_movies_pilot4,6100d7fb6ea88beb0124ef98,8,awesome soundtrack,1,Very Bad,Bad,direction,3111,,,,,2022-06-26 19:06:55,37694
5f121091e95fdc03b5e897d0,ma_choice_v4_movies_pilot4,5f121091e95fdc03b5e897d0,3,good action,0,Moderate,Good,direction,2280,,,,,2022-06-26 19:06:56,37695
6100d7fb6ea88beb0124ef98,ma_choice_v4_movies_pilot4,6100d7fb6ea88beb0124ef98,8,awesome soundtrack,1,Bad,Moderate,direction,1938,,,,,2022-06-26 19:06:57,37696
5f121091e95fdc03b5e897d0,ma_choice_v4_movies_pilot4,5f121091e95fdc03b5e897d0,3,good action,0,Good,Very Good,direction,1653,,,,,2022-06-26 19:06:58,37697
6100d7fb6ea88beb0124ef98,ma_choice_v4_movies_pilot4,6100d7fb6ea88beb0124ef98,8,awesome soundtrack,1,Moderate,Good,direction,1702,,,,,2022-06-26 19:06:59,37698
6100d7fb6ea88beb0124ef98,ma_choice_v4_movies_pilot4,6100d7fb6ea88beb0124ef98,8,awesome soundtrack,1,Good,Very Good,direction,1941,,,,,2022-06-26 19:07:00,37699
5f121091e95fdc03b5e897d0,ma_choice_v4_movies_pilot4,5f121091e95fdc03b5e897d0,4,funny,1,Very Bad,Very Good,direction,2088,,,,,2022-06-26 19:07:01,37700
5f121091e95fdc03b5e897d0,ma_choice_v4_movies_pilot4,5f121091e95fdc03b5e897d0,4,funny,1,Very Bad,Bad,direction,1828,,,,,2022-06-26 19:07:03,37701
5f121091e95fdc03b5e897d0,ma_choice_v4_movies_pilot4,5f121091e95fdc03b5e897d0,4,funny,1,Bad,Moderate,direction,1647,,,,,2022-06-26 19:07:05,37702
5f121091e95fdc03b5e897d0,ma_choice_v4_movies_pilot4,5f121091e95fdc03b5e897d0,4,funny,1,Moderate,Good,direction,1753,,,,,2022-06-26 19:07:06,37703
5bf5ab78f35e0c000101b657,ma_choice_v4_movies_pilot4,5bf5ab78f35e0c000101b657,5,plot,24,,,wad_att_rating,16123,,,,,2022-06-26 19:07:08,37704
5f121091e95fdc03b5e897d0,ma_choice_v4_movies_pilot4,5f121091e95fdc03b5e897d0,4,funny,1,Good,Very Good,direction,1412,,,,,2022-06-26 19:07:08,37705
5f121091e95fdc03b5e897d0,ma_choice_v4_movies_pilot4,5f121091e95fdc03b5e897d0,5,dialogue,1,Very Bad,Very Good,direction,1452,,,,,2022-06-26 19:07:10,37706
5bf5ab78f35e0c000101b657,ma_choice_v4_movies_pilot4,5bf5ab78f35e0c000101b657,0,artistic,25,,,wad_att_rating,3788,,,,,2022-06-26 19:07:12,37707
5f121091e95fdc03b5e897d0,ma_choice_v4_movies_pilot4,5f121091e95fdc03b5e897d0,5,dialogue,1,Very Bad,Bad,direction,1295,,,,,2022-06-26 19:07:12,37708
5f121091e95fdc03b5e897d0,ma_choice_v4_movies_pilot4,5f121091e95fdc03b5e897d0,5,dialogue,1,Bad,Moderate,direction,1610,,,,,2022-06-26 19:07:13,37709
5bf5ab78f35e0c000101b657,ma_choice_v4_movies_pilot4,5bf5ab78f35e0c000101b657,8,good action,98,,,wad_att_rating,2980,,,,,2022-06-26 19:07:15,37710
5f121091e95fdc03b5e897d0,ma_choice_v4_movies_pilot4,5f121091e95fdc03b5e897d0,5,dialogue,1,Moderate,Good,direction,2146,,,,,2022-06-26 19:07:15,37711
5f121091e95fdc03b5e897d0,ma_choice_v4_movies_pilot4,5f121091e95fdc03b5e897d0,5,dialogue,1,Good,Very Good,direction,1556,,,,,2022-06-26 19:07:17,37712
5bf5ab78f35e0c000101b657,ma_choice_v4_movies_pilot4,5bf5ab78f35e0c000101b657,2,romantic,0,,,wad_att_rating,3094,,,,,2022-06-26 19:07:18,37713
5bf5ab78f35e0c000101b657,ma_choice_v4_movies_pilot4,5bf5ab78f35e0c000101b657,7,awesome soundtrack,50,,,wad_att_rating,2744,,,,,2022-06-26 19:07:20,37714
5f121091e95fdc03b5e897d0,ma_choice_v4_movies_pilot4,5f121091e95fdc03b5e897d0,6,great acting,1,Very Bad,Very Good,direction,1723,,,,,2022-06-26 19:07:21,37715
5f121091e95fdc03b5e897d0,ma_choice_v4_movies_pilot4,5f121091e95fdc03b5e897d0,6,great acting,1,Very Bad,Bad,direction,1684,,,,,2022-06-26 19:07:22,37716
5f121091e95fdc03b5e897d0,ma_choice_v4_movies_pilot4,5f121091e95fdc03b5e897d0,6,great acting,1,Bad,Moderate,direction,1740,,,,,2022-06-26 19:07:24,37717
5bf5ab78f35e0c000101b657,ma_choice_v4_movies_pilot4,5bf5ab78f35e0c000101b657,1,funny,75,,,wad_att_rating,4857,,,,,2022-06-26 19:07:25,37718
5f121091e95fdc03b5e897d0,ma_choice_v4_movies_pilot4,5f121091e95fdc03b5e897d0,6,great acting,1,Moderate,Good,direction,1376,,,,,2022-06-26 19:07:25,37719
5f121091e95fdc03b5e897d0,ma_choice_v4_movies_pilot4,5f121091e95fdc03b5e897d0,6,great acting,1,Good,Very Good,direction,1783,,,,,2022-06-26 19:07:27,37720
5f121091e95fdc03b5e897d0,ma_choice_v4_movies_pilot4,5f121091e95fdc03b5e897d0,7,visual,1,Very Bad,Very Good,direction,1393,,,,,2022-06-26 19:07:30,37721
5f121091e95fdc03b5e897d0,ma_choice_v4_movies_pilot4,5f121091e95fdc03b5e897d0,7,visual,1,Very Bad,Bad,direction,1237,,,,,2022-06-26 19:07:31,37722
5f121091e95fdc03b5e897d0,ma_choice_v4_movies_pilot4,5f121091e95fdc03b5e897d0,7,visual,1,Bad,Moderate,direction,3013,,,,,2022-06-26 19:07:34,37723
5f121091e95fdc03b5e897d0,ma_choice_v4_movies_pilot4,5f121091e95fdc03b5e897d0,7,visual,1,Moderate,Good,direction,1565,,,,,2022-06-26 19:07:36,37724
5f121091e95fdc03b5e897d0,ma_choice_v4_movies_pilot4,5f121091e95fdc03b5e897d0,7,visual,1,Good,Very Good,direction,1778,,,,,2022-06-26 19:07:37,37725
5f121091e95fdc03b5e897d0,ma_choice_v4_movies_pilot4,5f121091e95fdc03b5e897d0,8,awesome soundtrack,1,Very Bad,Very Good,direction,1343,,,,,2022-06-26 19:07:40,37726
5f121091e95fdc03b5e897d0,ma_choice_v4_movies_pilot4,5f121091e95fdc03b5e897d0,8,awesome soundtrack,1,Very Bad,Bad,direction,1455,,,,,2022-06-26 19:07:42,37727
5f121091e95fdc03b5e897d0,ma_choice_v4_movies_pilot4,5f121091e95fdc03b5e897d0,8,awesome soundtrack,1,Bad,Moderate,direction,1967,,,,,2022-06-26 19:07:44,37728
5f121091e95fdc03b5e897d0,ma_choice_v4_movies_pilot4,5f121091e95fdc03b5e897d0,8,awesome soundtrack,1,Moderate,Good,direction,1441,,,,,2022-06-26 19:07:45,37729
5f121091e95fdc03b5e897d0,ma_choice_v4_movies_pilot4,5f121091e95fdc03b5e897d0,8,awesome soundtrack,1,Good,Very Good,direction,1512,,,,,2022-06-26 19:07:47,37730
5bf5ab78f35e0c000101b657,ma_choice_v4_movies_pilot4,5bf5ab78f35e0c000101b657,4,great acting,25,,,wad_att_rating,24107,,,,,2022-06-26 19:07:49,37731
5bf5ab78f35e0c000101b657,ma_choice_v4_movies_pilot4,5bf5ab78f35e0c000101b657,3,visual,50,,,wad_att_rating,2733,,,,,2022-06-26 19:07:52,37732
5bf5ab78f35e0c000101b657,ma_choice_v4_movies_pilot4,5bf5ab78f35e0c000101b657,6,dialogue,37,,,wad_att_rating,2469,,,,,2022-06-26 19:07:55,37733
5d0fc3b267111c001a633eb8,ma_choice_v4_movies_pilot4,5d0fc3b267111c001a633eb8,0,funny,1,Very Bad,Very Good,direction,10550,,,,,2022-06-26 19:08:02,37734
5d0fc3b267111c001a633eb8,ma_choice_v4_movies_pilot4,5d0fc3b267111c001a633eb8,0,funny,1,Very Bad,Bad,direction,3428,,,,,2022-06-26 19:08:05,37735
5d0fc3b267111c001a633eb8,ma_choice_v4_movies_pilot4,5d0fc3b267111c001a633eb8,0,funny,1,Bad,Moderate,direction,2485,,,,,2022-06-26 19:08:08,37736
5d0fc3b267111c001a633eb8,ma_choice_v4_movies_pilot4,5d0fc3b267111c001a633eb8,0,funny,1,Moderate,Good,direction,2620,,,,,2022-06-26 19:08:10,37737
5d0fc3b267111c001a633eb8,ma_choice_v4_movies_pilot4,5d0fc3b267111c001a633eb8,0,funny,1,Good,Very Good,direction,1764,,,,,2022-06-26 19:08:12,37738
5d0fc3b267111c001a633eb8,ma_choice_v4_movies_pilot4,5d0fc3b267111c001a633eb8,1,visual,1,Very Bad,Very Good,direction,5470,,,,,2022-06-26 19:08:18,37739
5d0fc3b267111c001a633eb8,ma_choice_v4_movies_pilot4,5d0fc3b267111c001a633eb8,1,visual,1,Very Bad,Bad,direction,3252,,,,,2022-06-26 19:08:22,37740
5d0fc3b267111c001a633eb8,ma_choice_v4_movies_pilot4,5d0fc3b267111c001a633eb8,1,visual,1,Bad,Moderate,direction,1581,,,,,2022-06-26 19:08:23,37741
5d0fc3b267111c001a633eb8,ma_choice_v4_movies_pilot4,5d0fc3b267111c001a633eb8,1,visual,1,Moderate,Good,direction,1117,,,,,2022-06-26 19:08:24,37742
5d0fc3b267111c001a633eb8,ma_choice_v4_movies_pilot4,5d0fc3b267111c001a633eb8,1,visual,1,Good,Very Good,direction,972,,,,,2022-06-26 19:08:25,37743
5d0fc3b267111c001a633eb8,ma_choice_v4_movies_pilot4,5d0fc3b267111c001a633eb8,2,dialogue,1,Very Bad,Very Good,direction,1366,,,,,2022-06-26 19:08:27,37744
5d0fc3b267111c001a633eb8,ma_choice_v4_movies_pilot4,5d0fc3b267111c001a633eb8,2,dialogue,1,Very Bad,Bad,direction,2005,,,,,2022-06-26 19:08:29,37745
5d0fc3b267111c001a633eb8,ma_choice_v4_movies_pilot4,5d0fc3b267111c001a633eb8,2,dialogue,1,Bad,Moderate,direction,1589,,,,,2022-06-26 19:08:31,37746
5d0fc3b267111c001a633eb8,ma_choice_v4_movies_pilot4,5d0fc3b267111c001a633eb8,2,dialogue,1,Moderate,Good,direction,1196,,,,,2022-06-26 19:08:32,37747
5d0fc3b267111c001a633eb8,ma_choice_v4_movies_pilot4,5d0fc3b267111c001a633eb8,2,dialogue,1,Good,Very Good,direction,1260,,,,,2022-06-26 19:08:34,37748
5d0fc3b267111c001a633eb8,ma_choice_v4_movies_pilot4,5d0fc3b267111c001a633eb8,3,great acting,1,Very Bad,Very Good,direction,1262,,,,,2022-06-26 19:08:36,37749
5d0fc3b267111c001a633eb8,ma_choice_v4_movies_pilot4,5d0fc3b267111c001a633eb8,3,great acting,1,Very Bad,Bad,direction,1669,,,,,2022-06-26 19:08:37,37750
5d0fc3b267111c001a633eb8,ma_choice_v4_movies_pilot4,5d0fc3b267111c001a633eb8,3,great acting,1,Bad,Moderate,direction,1772,,,,,2022-06-26 19:08:39,37751
5d0fc3b267111c001a633eb8,ma_choice_v4_movies_pilot4,5d0fc3b267111c001a633eb8,3,great acting,1,Moderate,Good,direction,1645,,,,,2022-06-26 19:08:41,37752
5d0fc3b267111c001a633eb8,ma_choice_v4_movies_pilot4,5d0fc3b267111c001a633eb8,3,great acting,1,Good,Very Good,direction,781,,,,,2022-06-26 19:08:42,37753
5d0fc3b267111c001a633eb8,ma_choice_v4_movies_pilot4,5d0fc3b267111c001a633eb8,4,artistic,1,Very Bad,Very Good,direction,1558,,,,,2022-06-26 19:08:44,37754
5d0fc3b267111c001a633eb8,ma_choice_v4_movies_pilot4,5d0fc3b267111c001a633eb8,4,artistic,1,Very Bad,Bad,direction,2221,,,,,2022-06-26 19:08:46,37755
5d0fc3b267111c001a633eb8,ma_choice_v4_movies_pilot4,5d0fc3b267111c001a633eb8,4,artistic,1,Bad,Moderate,direction,1140,,,,,2022-06-26 19:08:47,37756
5d0fc3b267111c001a633eb8,ma_choice_v4_movies_pilot4,5d0fc3b267111c001a633eb8,4,artistic,1,Moderate,Good,direction,1012,,,,,2022-06-26 19:08:48,37757
5d0fc3b267111c001a633eb8,ma_choice_v4_movies_pilot4,5d0fc3b267111c001a633eb8,4,artistic,1,Good,Very Good,direction,1637,,,,,2022-06-26 19:08:50,37758
5d0fc3b267111c001a633eb8,ma_choice_v4_movies_pilot4,5d0fc3b267111c001a633eb8,5,awesome soundtrack,1,Very Bad,Very Good,direction,1247,,,,,2022-06-26 19:08:52,37759
5d0fc3b267111c001a633eb8,ma_choice_v4_movies_pilot4,5d0fc3b267111c001a633eb8,5,awesome soundtrack,1,Very Bad,Bad,direction,740,,,,,2022-06-26 19:08:53,37760
5d0fc3b267111c001a633eb8,ma_choice_v4_movies_pilot4,5d0fc3b267111c001a633eb8,5,awesome soundtrack,1,Bad,Moderate,direction,1349,,,,,2022-06-26 19:08:54,37761
5d0fc3b267111c001a633eb8,ma_choice_v4_movies_pilot4,5d0fc3b267111c001a633eb8,5,awesome soundtrack,1,Moderate,Good,direction,932,,,,,2022-06-26 19:08:55,37762
5d0fc3b267111c001a633eb8,ma_choice_v4_movies_pilot4,5d0fc3b267111c001a633eb8,5,awesome soundtrack,1,Good,Very Good,direction,709,,,,,2022-06-26 19:08:56,37763
5d0fc3b267111c001a633eb8,ma_choice_v4_movies_pilot4,5d0fc3b267111c001a633eb8,6,good action,1,Very Bad,Very Good,direction,1766,,,,,2022-06-26 19:08:59,37764
5d0fc3b267111c001a633eb8,ma_choice_v4_movies_pilot4,5d0fc3b267111c001a633eb8,6,good action,1,Very Bad,Bad,direction,1485,,,,,2022-06-26 19:09:01,37765
5d0fc3b267111c001a633eb8,ma_choice_v4_movies_pilot4,5d0fc3b267111c001a633eb8,6,good action,1,Bad,Moderate,direction,1117,,,,,2022-06-26 19:09:02,37766
5d0fc3b267111c001a633eb8,ma_choice_v4_movies_pilot4,5d0fc3b267111c001a633eb8,6,good action,1,Moderate,Good,direction,789,,,,,2022-06-26 19:09:03,37767
5d0fc3b267111c001a633eb8,ma_choice_v4_movies_pilot4,5d0fc3b267111c001a633eb8,6,good action,1,Good,Very Good,direction,821,,,,,2022-06-26 19:09:04,37768
5d0fc3b267111c001a633eb8,ma_choice_v4_movies_pilot4,5d0fc3b267111c001a633eb8,7,romantic,1,Very Bad,Very Good,direction,1598,,,,,2022-06-26 19:09:06,37769
5d0fc3b267111c001a633eb8,ma_choice_v4_movies_pilot4,5d0fc3b267111c001a633eb8,7,romantic,1,Very Bad,Bad,direction,1597,,,,,2022-06-26 19:09:08,37770
5d0fc3b267111c001a633eb8,ma_choice_v4_movies_pilot4,5d0fc3b267111c001a633eb8,7,romantic,1,Bad,Moderate,direction,2260,,,,,2022-06-26 19:09:10,37771
5d0fc3b267111c001a633eb8,ma_choice_v4_movies_pilot4,5d0fc3b267111c001a633eb8,7,romantic,1,Moderate,Good,direction,772,,,,,2022-06-26 19:09:11,37772
5d0fc3b267111c001a633eb8,ma_choice_v4_movies_pilot4,5d0fc3b267111c001a633eb8,7,romantic,1,Good,Very Good,direction,1532,,,,,2022-06-26 19:09:12,37773
5d0fc3b267111c001a633eb8,ma_choice_v4_movies_pilot4,5d0fc3b267111c001a633eb8,8,plot,1,Very Bad,Very Good,direction,1822,,,,,2022-06-26 19:09:15,37774
5d0fc3b267111c001a633eb8,ma_choice_v4_movies_pilot4,5d0fc3b267111c001a633eb8,8,plot,1,Very Bad,Bad,direction,1140,,,,,2022-06-26 19:09:16,37775
5d0fc3b267111c001a633eb8,ma_choice_v4_movies_pilot4,5d0fc3b267111c001a633eb8,8,plot,1,Bad,Moderate,direction,1069,,,,,2022-06-26 19:09:17,37776
5d0fc3b267111c001a633eb8,ma_choice_v4_movies_pilot4,5d0fc3b267111c001a633eb8,8,plot,1,Moderate,Good,direction,1389,,,,,2022-06-26 19:09:19,37777
5d0fc3b267111c001a633eb8,ma_choice_v4_movies_pilot4,5d0fc3b267111c001a633eb8,8,plot,1,Good,Very Good,direction,1245,,,,,2022-06-26 19:09:20,37778
5e2631760e122288e0404af7,ma_choice_v4_movies_pilot4,5e2631760e122288e0404af7,0,artistic,1,Very Bad,Very Good,direction,9353,,,,,2022-06-26 19:09:35,37779
5e2631760e122288e0404af7,ma_choice_v4_movies_pilot4,5e2631760e122288e0404af7,0,artistic,1,Very Bad,Bad,direction,5144,,,,,2022-06-26 19:09:40,37780
5e2631760e122288e0404af7,ma_choice_v4_movies_pilot4,5e2631760e122288e0404af7,0,artistic,1,Bad,Moderate,direction,2220,,,,,2022-06-26 19:09:42,37781
5e2631760e122288e0404af7,ma_choice_v4_movies_pilot4,5e2631760e122288e0404af7,0,artistic,1,Moderate,Good,direction,3012,,,,,2022-06-26 19:09:45,37782
5e2631760e122288e0404af7,ma_choice_v4_movies_pilot4,5e2631760e122288e0404af7,0,artistic,1,Good,Very Good,direction,1679,,,,,2022-06-26 19:09:47,37783
5e2631760e122288e0404af7,ma_choice_v4_movies_pilot4,5e2631760e122288e0404af7,1,dialogue,1,Very Bad,Very Good,direction,1634,,,,,2022-06-26 19:09:49,37784
5e2631760e122288e0404af7,ma_choice_v4_movies_pilot4,5e2631760e122288e0404af7,1,dialogue,1,Very Bad,Bad,direction,1813,,,,,2022-06-26 19:09:51,37785
62b496ea7c06f67ea068d0d3,ma_choice_v4_movies_pilot4,62b496ea7c06f67ea068d0d3,0,artistic,74,,,wad_att_rating,15460,,,,,2022-06-26 19:09:51,37786
5e2631760e122288e0404af7,ma_choice_v4_movies_pilot4,5e2631760e122288e0404af7,1,dialogue,1,Bad,Moderate,direction,1343,,,,,2022-06-26 19:09:52,37787
5e2631760e122288e0404af7,ma_choice_v4_movies_pilot4,5e2631760e122288e0404af7,1,dialogue,1,Moderate,Good,direction,2765,,,,,2022-06-26 19:09:55,37788
5e2631760e122288e0404af7,ma_choice_v4_movies_pilot4,5e2631760e122288e0404af7,1,dialogue,1,Good,Very Good,direction,1424,,,,,2022-06-26 19:09:57,37789
5e2631760e122288e0404af7,ma_choice_v4_movies_pilot4,5e2631760e122288e0404af7,2,visual,1,Very Bad,Very Good,direction,1344,,,,,2022-06-26 19:09:59,37790
5e2631760e122288e0404af7,ma_choice_v4_movies_pilot4,5e2631760e122288e0404af7,2,visual,1,Very Bad,Bad,direction,1276,,,,,2022-06-26 19:10:00,37791
5e2631760e122288e0404af7,ma_choice_v4_movies_pilot4,5e2631760e122288e0404af7,2,visual,1,Bad,Moderate,direction,1491,,,,,2022-06-26 19:10:02,37792
62b496ea7c06f67ea068d0d3,ma_choice_v4_movies_pilot4,62b496ea7c06f67ea068d0d3,2,romantic,48,,,wad_att_rating,11507,,,,,2022-06-26 19:10:03,37793
5e2631760e122288e0404af7,ma_choice_v4_movies_pilot4,5e2631760e122288e0404af7,2,visual,1,Moderate,Good,direction,1374,,,,,2022-06-26 19:10:03,37794
5e2631760e122288e0404af7,ma_choice_v4_movies_pilot4,5e2631760e122288e0404af7,2,visual,1,Good,Very Good,direction,1109,,,,,2022-06-26 19:10:04,37795
5dd663c3cf8e7e5efc123950,ma_choice_v4_movies_pilot4,5dd663c3cf8e7e5efc123950,0,Acting,1,,,lex_att_rating,7029,,,,,2022-06-26 19:10:08,37796
62b496ea7c06f67ea068d0d3,ma_choice_v4_movies_pilot4,62b496ea7c06f67ea068d0d3,3,visual,100,,,wad_att_rating,8412,,,,,2022-06-26 19:10:11,37797
5e2631760e122288e0404af7,ma_choice_v4_movies_pilot4,5e2631760e122288e0404af7,3,good action,1,Very Bad,Very Good,direction,6943,,,,,2022-06-26 19:10:12,37798
5e2631760e122288e0404af7,ma_choice_v4_movies_pilot4,5e2631760e122288e0404af7,3,good action,1,Very Bad,Bad,direction,2405,,,,,2022-06-26 19:10:15,37799
5e2631760e122288e0404af7,ma_choice_v4_movies_pilot4,5e2631760e122288e0404af7,3,good action,1,Bad,Moderate,direction,1101,,,,,2022-06-26 19:10:16,37800
62b496ea7c06f67ea068d0d3,ma_choice_v4_movies_pilot4,62b496ea7c06f67ea068d0d3,8,good action,100,,,wad_att_rating,6652,,,,,2022-06-26 19:10:17,37801
5e2631760e122288e0404af7,ma_choice_v4_movies_pilot4,5e2631760e122288e0404af7,3,good action,1,Moderate,Good,direction,917,,,,,2022-06-26 19:10:17,37802
5e2631760e122288e0404af7,ma_choice_v4_movies_pilot4,5e2631760e122288e0404af7,3,good action,1,Good,Very Good,direction,881,,,,,2022-06-26 19:10:18,37803
5e2631760e122288e0404af7,ma_choice_v4_movies_pilot4,5e2631760e122288e0404af7,4,funny,1,Very Bad,Very Good,direction,824,,,,,2022-06-26 19:10:19,37804
5e2631760e122288e0404af7,ma_choice_v4_movies_pilot4,5e2631760e122288e0404af7,4,funny,1,Very Bad,Bad,direction,1222,,,,,2022-06-26 19:10:21,37805
5e2631760e122288e0404af7,ma_choice_v4_movies_pilot4,5e2631760e122288e0404af7,4,funny,1,Bad,Moderate,direction,1265,,,,,2022-06-26 19:10:22,37806
5e2631760e122288e0404af7,ma_choice_v4_movies_pilot4,5e2631760e122288e0404af7,4,funny,1,Moderate,Good,direction,929,,,,,2022-06-26 19:10:23,37807
5dd663c3cf8e7e5efc123950,ma_choice_v4_movies_pilot4,5dd663c3cf8e7e5efc123950,3,visual,46,,,wad_att_rating,6909,,,,,2022-06-26 19:10:23,37808
5e2631760e122288e0404af7,ma_choice_v4_movies_pilot4,5e2631760e122288e0404af7,4,funny,1,Good,Very Good,direction,820,,,,,2022-06-26 19:10:24,37809
