subject,version,assignmentId,trial,practice,opt1_id,opt2_id,attributes,opt1_values,opt2_values,choice,orig_choice,rt,stamp,id
5c9e829c7c5bfd00177fe952,ma_choice_v4_observers_pilot1,5c9e829c7c5bfd00177fe952,0,1,-1,-1,"Size of home,Quality of heat/AC system,Amount of traffic,Reputation of closest school,Noise pollution,Year building was built,Quality of kitchen,Size of yard,Closeness to parks","1400 square feet,Bad,Very Little,Very Bad,High,2008,Bad,300 square feet,10 min away","1100 square feet,Good,A Lot,Good,Low,1971,Good,600 square feet,30 min away",1,1,27194,2022-06-16 21:09:02,80019
5c9e829c7c5bfd00177fe952,ma_choice_v4_observers_pilot1,5c9e829c7c5bfd00177fe952,1,1,-1,-1,"Quality of heat/AC system,Reputation of closest school,Year building was built,Amount of traffic,Size of home,Size of yard,Closeness to parks,Noise pollution,Quality of kitchen","Good,Moderate,1950,A Lot,1400 square feet,150 square feet,15 min away,Very High,Moderate","Bad,Very Good,2009,Very Little,1600 square feet,300 square feet,30 min away,Low,Very Good",1,0,33669,2022-06-16 21:09:37,80236
5c9e829c7c5bfd00177fe952,ma_choice_v4_observers_pilot1,5c9e829c7c5bfd00177fe952,2,1,-1,-1,"Size of home,Closeness to parks,Year building was built,Reputation of closest school,Quality of heat/AC system,Amount of traffic,Noise pollution,Size of yard,Quality of kitchen","1100 square feet,20 min away,1974,Good,Very Bad,A Lot,Very Low,450 square feet,Moderate","1500 square feet,30 min away,2020,Very Bad,Good,A Little,Very High,200 square feet,Very Bad",1,1,22382,2022-06-16 21:10:00,80374
5c9e829c7c5bfd00177fe952,ma_choice_v4_observers_pilot1,5c9e829c7c5bfd00177fe952,3,1,-1,-1,"Quality of heat/AC system,Size of yard,Noise pollution,Closeness to parks,Amount of traffic,Size of home,Quality of kitchen,Year building was built,Reputation of closest school","Moderate,100 square feet,High,20 min away,A Little,1700 square feet,Very Good,1993,Very Good","Very Good,250 square feet,Low,30 min away,A Lot,800 square feet,Bad,1953,Moderate",0,0,13476,2022-06-16 21:10:15,80447
5c9e829c7c5bfd00177fe952,ma_choice_v4_observers_pilot1,5c9e829c7c5bfd00177fe952,4,1,-1,-1,"Reputation of closest school,Amount of traffic,Size of home,Closeness to parks,Year building was built,Quality of kitchen,Size of yard,Noise pollution,Quality of heat/AC system","Good,A Lot,600 square feet,20 min away,1950,Very Bad,500 square feet,Very High,Very Good","Very Bad,Very Little,900 square feet,10 min away,1995,Good,350 square feet,Very Low,Moderate",1,1,9385,2022-06-16 21:10:25,80524
5c9e829c7c5bfd00177fe952,ma_choice_v4_observers_pilot1,5c9e829c7c5bfd00177fe952,5,1,-1,-1,"Closeness to parks,Quality of heat/AC system,Quality of kitchen,Year building was built,Size of home,Size of yard,Amount of traffic,Noise pollution,Reputation of closest school","25 min away,Moderate,Good,2016,1300 square feet,150 square feet,A Lot,Low,Moderate","10 min away,Very Good,Very Bad,1972,1000 square feet,350 square feet,A Little,Very High,Very Bad",0,0,9409,2022-06-16 21:10:35,80588
5c9e829c7c5bfd00177fe952,ma_choice_v4_observers_pilot1,5c9e829c7c5bfd00177fe952,6,1,-1,-1,"Size of yard,Year building was built,Amount of traffic,Reputation of closest school,Closeness to parks,Noise pollution,Quality of kitchen,Size of home,Quality of heat/AC system","350 square feet,2013,A Lot,Good,10 min away,High,Very Bad,700 square feet,Very Good","100 square feet,1974,A Little,Very Bad,30 min away,Very Low,Moderate,1200 square feet,Very Bad",0,0,7965,2022-06-16 21:10:44,80638
5c9e829c7c5bfd00177fe952,ma_choice_v4_observers_pilot1,5c9e829c7c5bfd00177fe952,7,1,-1,-1,"Amount of traffic,Reputation of closest school,Noise pollution,Quality of kitchen,Size of home,Year building was built,Closeness to parks,Size of yard,Quality of heat/AC system","A Moderate Amount,Good,Very Low,Good,1100 square feet,1973,25 min away,400 square feet,Very Good","Very Little,Bad,High,Bad,1300 square feet,2012,15 min away,50 square feet,Very Bad",0,0,8147,2022-06-16 21:10:53,80699
5c9e829c7c5bfd00177fe952,ma_choice_v4_observers_pilot1,5c9e829c7c5bfd00177fe952,8,1,-1,-1,"Size of home,Closeness to parks,Amount of traffic,Noise pollution,Year building was built,Size of yard,Reputation of closest school,Quality of kitchen,Quality of heat/AC system","1400 square feet,30 min away,A Lot,Moderate,1970,150 square feet,Very Good,Moderate,Very Bad","1800 square feet,20 min away,Very Little,Very Low,2005,450 square feet,Moderate,Very Bad,Moderate",1,1,8169,2022-06-16 21:11:03,80765
5c9e829c7c5bfd00177fe952,ma_choice_v4_observers_pilot1,5c9e829c7c5bfd00177fe952,9,1,-1,-1,"Size of home,Closeness to parks,Year building was built,Amount of traffic,Reputation of closest school,Quality of heat/AC system,Quality of kitchen,Size of yard,Noise pollution","1500 square feet,25 min away,1955,Very Little,Moderate,Very Good,Very Good,500 square feet,Very Low","1100 square feet,15 min away,2006,A Lot,Very Bad,Moderate,Very Bad,300 square feet,Moderate",0,0,7912,2022-06-16 21:11:12,80824
5c9e829c7c5bfd00177fe952,ma_choice_v4_observers_pilot1,5c9e829c7c5bfd00177fe952,0,0,-1,-1,"Size of yard,Year building was built,Quality of kitchen,Size of home,Noise pollution,Amount of traffic,Reputation of closest school,Quality of heat/AC system,Closeness to parks","50 square feet,1988,Very Good,1100 square feet,Moderate,A Moderate Amount,Good,Good,10 min away","600 square feet,2016,Moderate,900 square feet,Very High,Very Little,Very Bad,Very Bad,20 min away",0,0,14764,2022-06-16 21:12:01,81144
5c9e829c7c5bfd00177fe952,ma_choice_v4_observers_pilot1,5c9e829c7c5bfd00177fe952,1,0,-1,-1,"Quality of heat/AC system,Noise pollution,Reputation of closest school,Size of home,Year building was built,Quality of kitchen,Amount of traffic,Closeness to parks,Size of yard","Moderate,Very Low,Good,1500 square feet,1997,Moderate,A Little,25 min away,250 square feet","Very Bad,High,Very Bad,800 square feet,1963,Very Good,A Lot,15 min away,500 square feet",0,0,9284,2022-06-16 21:12:11,81202
5c9e829c7c5bfd00177fe952,ma_choice_v4_observers_pilot1,5c9e829c7c5bfd00177fe952,2,0,-1,-1,"Size of home,Closeness to parks,Amount of traffic,Year building was built,Size of yard,Quality of heat/AC system,Reputation of closest school,Quality of kitchen,Noise pollution","1200 square feet,25 min away,A Moderate Amount,1979,50 square feet,Very Bad,Bad,Very Good,Very Low","700 square feet,10 min away,Very Little,1950,450 square feet,Good,Good,Bad,High",0,0,24176,2022-06-16 21:12:36,81370
5c9e829c7c5bfd00177fe952,ma_choice_v4_observers_pilot1,5c9e829c7c5bfd00177fe952,3,0,-1,-1,"Quality of kitchen,Year building was built,Closeness to parks,Size of home,Size of yard,Amount of traffic,Quality of heat/AC system,Reputation of closest school,Noise pollution","Bad,2012,30 min away,1300 square feet,550 square feet,Very Little,Very Bad,Bad,High","Very Good,1987,10 min away,1000 square feet,100 square feet,A Lot,Moderate,Good,Low",0,0,7917,2022-06-16 21:12:45,81430
5c9e829c7c5bfd00177fe952,ma_choice_v4_observers_pilot1,5c9e829c7c5bfd00177fe952,4,0,-1,-1,"Amount of traffic,Noise pollution,Size of yard,Quality of kitchen,Reputation of closest school,Size of home,Quality of heat/AC system,Closeness to parks,Year building was built","Very Little,Very High,600 square feet,Moderate,Good,1100 square feet,Very Bad,25 min away,1990","A Moderate Amount,Low,150 square feet,Very Bad,Very Bad,1600 square feet,Moderate,10 min away,1956",1,1,11268,2022-06-16 21:12:57,81506
5c9e829c7c5bfd00177fe952,ma_choice_v4_observers_pilot1,5c9e829c7c5bfd00177fe952,5,0,-1,-1,"Quality of heat/AC system,Size of home,Quality of kitchen,Noise pollution,Reputation of closest school,Size of yard,Closeness to parks,Year building was built,Amount of traffic","Very Good,600 square feet,Very Bad,High,Very Bad,150 square feet,15 min away,1956,A Lot","Very Bad,1100 square feet,Very Good,Very Low,Very Good,350 square feet,30 min away,1987,A Little",1,1,13027,2022-06-16 21:13:11,81588
5c9e829c7c5bfd00177fe952,ma_choice_v4_observers_pilot1,5c9e829c7c5bfd00177fe952,6,0,-1,-1,"Closeness to parks,Size of yard,Reputation of closest school,Quality of heat/AC system,Amount of traffic,Noise pollution,Quality of kitchen,Year building was built,Size of home","25 min away,50 square feet,Moderate,Bad,A Lot,Moderate,Good,2007,1100 square feet","15 min away,550 square feet,Very Bad,Good,Very Little,Very Low,Very Bad,1985,700 square feet",0,0,9810,2022-06-16 21:13:22,81665
5c9e829c7c5bfd00177fe952,ma_choice_v4_observers_pilot1,5c9e829c7c5bfd00177fe952,7,0,-1,-1,"Size of yard,Amount of traffic,Year building was built,Reputation of closest school,Size of home,Noise pollution,Quality of kitchen,Quality of heat/AC system,Closeness to parks","100 square feet,A Little,1954,Very Bad,1000 square feet,Low,Moderate,Moderate,15 min away","450 square feet,A Lot,2016,Very Good,600 square feet,High,Very Good,Very Good,30 min away",0,0,10607,2022-06-16 21:13:34,81742
5c9e829c7c5bfd00177fe952,ma_choice_v4_observers_pilot1,5c9e829c7c5bfd00177fe952,8,0,-1,-1,"Size of home,Reputation of closest school,Size of yard,Year building was built,Closeness to parks,Quality of heat/AC system,Quality of kitchen,Noise pollution,Amount of traffic","1800 square feet,Bad,400 square feet,1990,30 min away,Good,Bad,Very Low,A Lot","800 square feet,Good,100 square feet,1965,20 min away,Bad,Very Good,Very High,Very Little",0,0,11554,2022-06-16 21:13:46,81823
5c9e829c7c5bfd00177fe952,ma_choice_v4_observers_pilot1,5c9e829c7c5bfd00177fe952,9,0,-1,-1,"Quality of kitchen,Noise pollution,Closeness to parks,Size of yard,Amount of traffic,Year building was built,Quality of heat/AC system,Reputation of closest school,Size of home","Very Good,Very Low,20 min away,300 square feet,A Lot,1957,Bad,Moderate,1300 square feet","Bad,Very High,30 min away,100 square feet,Very Little,1993,Good,Very Bad,1500 square feet",1,1,48765,2022-06-16 21:14:36,82127
5cd3ff1ac99584000199dd15,ma_choice_v4_observers_pilot1,5cd3ff1ac99584000199dd15,0,1,-1,-1,"Closeness to parks,Year building was built,Noise pollution,Size of home,Reputation of closest school,Quality of kitchen,Amount of traffic,Size of yard,Quality of heat/AC system","20 min away,1974,Very Low,1100 square feet,Good,Moderate,A Lot,450 square feet,Very Bad","30 min away,2020,Very High,1500 square feet,Very Bad,Very Bad,A Little,200 square feet,Good",0,0,47795,2022-06-16 21:14:40,82146
5cd3ff1ac99584000199dd15,ma_choice_v4_observers_pilot1,5cd3ff1ac99584000199dd15,1,1,-1,-1,"Year building was built,Size of home,Amount of traffic,Closeness to parks,Size of yard,Quality of kitchen,Quality of heat/AC system,Noise pollution,Reputation of closest school","1970,1400 square feet,A Lot,30 min away,150 square feet,Moderate,Very Bad,Moderate,Very Good","2005,1800 square feet,Very Little,20 min away,450 square feet,Very Bad,Moderate,Very Low,Moderate",1,1,12992,2022-06-16 21:14:53,82227
5c9e829c7c5bfd00177fe952,ma_choice_v4_observers_pilot1,5c9e829c7c5bfd00177fe952,10,0,-1,-1,"Size of home,Noise pollution,Amount of traffic,Size of yard,Quality of kitchen,Quality of heat/AC system,Year building was built,Reputation of closest school,Closeness to parks","1800 square feet,Very Low,Very Little,50 square feet,Moderate,Very Good,1958,Moderate,10 min away","600 square feet,High,A Moderate Amount,300 square feet,Very Good,Moderate,2008,Very Good,20 min away",0,0,17969,2022-06-16 21:14:55,82238
5cd3ff1ac99584000199dd15,ma_choice_v4_observers_pilot1,5cd3ff1ac99584000199dd15,2,1,-1,-1,"Closeness to parks,Year building was built,Size of yard,Quality of heat/AC system,Reputation of closest school,Amount of traffic,Noise pollution,Quality of kitchen,Size of home","20 min away,1993,100 square feet,Moderate,Very Good,A Little,High,Very Good,1700 square feet","30 min away,1953,250 square feet,Very Good,Moderate,A Lot,Low,Bad,800 square feet",0,0,10236,2022-06-16 21:15:04,82288
5c9e829c7c5bfd00177fe952,ma_choice_v4_observers_pilot1,5c9e829c7c5bfd00177fe952,11,0,-1,-1,"Quality of kitchen,Size of home,Amount of traffic,Closeness to parks,Quality of heat/AC system,Reputation of closest school,Size of yard,Year building was built,Noise pollution","Very Good,600 square feet,A Little,30 min away,Very Bad,Moderate,600 square feet,1987,Very Low","Moderate,800 square feet,A Lot,15 min away,Good,Very Bad,350 square feet,2019,Moderate",1,1,12269,2022-06-16 21:15:08,82310
5c9e829c7c5bfd00177fe952,ma_choice_v4_observers_pilot1,5c9e829c7c5bfd00177fe952,12,0,-1,-1,"Size of yard,Amount of traffic,Reputation of closest school,Year building was built,Quality of heat/AC system,Size of home,Noise pollution,Quality of kitchen,Closeness to parks","100 square feet,Very Little,Bad,1951,Moderate,1100 square feet,Very Low,Very Bad,20 min away","300 square feet,A Moderate Amount,Good,1989,Very Good,1700 square feet,Moderate,Very Good,10 min away",1,1,11208,2022-06-16 21:15:21,82374
5cd3ff1ac99584000199dd15,ma_choice_v4_observers_pilot1,5cd3ff1ac99584000199dd15,3,1,-1,-1,"Quality of kitchen,Noise pollution,Year building was built,Quality of heat/AC system,Size of yard,Size of home,Amount of traffic,Reputation of closest school,Closeness to parks","Good,Low,2016,Moderate,150 square feet,1300 square feet,A Lot,Moderate,25 min away","Very Bad,Very High,1972,Very Good,350 square feet,1000 square feet,A Little,Very Bad,10 min away",0,0,25949,2022-06-16 21:15:31,82429
5cd3ff1ac99584000199dd15,ma_choice_v4_observers_pilot1,5cd3ff1ac99584000199dd15,4,1,-1,-1,"Quality of heat/AC system,Size of yard,Closeness to parks,Noise pollution,Amount of traffic,Size of home,Year building was built,Quality of kitchen,Reputation of closest school","Bad,300 square feet,10 min away,High,Very Little,1400 square feet,2008,Bad,Very Bad","Good,600 square feet,30 min away,Low,A Lot,1100 square feet,1971,Good,Good",1,1,10717,2022-06-16 21:15:43,82496
5c9e829c7c5bfd00177fe952,ma_choice_v4_observers_pilot1,5c9e829c7c5bfd00177fe952,13,0,-1,-1,"Reputation of closest school,Noise pollution,Quality of kitchen,Size of home,Quality of heat/AC system,Closeness to parks,Amount of traffic,Size of yard,Year building was built","Bad,Very High,Bad,700 square feet,Good,25 min away,A Moderate Amount,550 square feet,1985","Very Good,Very Low,Good,1200 square feet,Very Bad,15 min away,Very Little,200 square feet,2012",1,1,27801,2022-06-16 21:15:49,82544
5cd3ff1ac99584000199dd15,ma_choice_v4_observers_pilot1,5cd3ff1ac99584000199dd15,5,1,-1,-1,"Year building was built,Noise pollution,Closeness to parks,Size of home,Amount of traffic,Size of yard,Quality of heat/AC system,Quality of kitchen,Reputation of closest school","2012,High,15 min away,1300 square feet,Very Little,50 square feet,Very Bad,Bad,Bad","1973,Very Low,25 min away,1100 square feet,A Moderate Amount,400 square feet,Very Good,Good,Good",1,1,12755,2022-06-16 21:15:56,82580
5c9e829c7c5bfd00177fe952,ma_choice_v4_observers_pilot1,5c9e829c7c5bfd00177fe952,14,0,-1,-1,"Noise pollution,Year building was built,Size of home,Quality of heat/AC system,Closeness to parks,Amount of traffic,Size of yard,Quality of kitchen,Reputation of closest school","Moderate,1978,1600 square feet,Very Good,15 min away,A Moderate Amount,550 square feet,Bad,Very Good","Very Low,2011,1000 square feet,Bad,25 min away,Very Little,50 square feet,Good,Very Bad",0,0,8384,2022-06-16 21:15:59,82596
5cd3ff1ac99584000199dd15,ma_choice_v4_observers_pilot1,5cd3ff1ac99584000199dd15,6,1,-1,-1,"Amount of traffic,Closeness to parks,Noise pollution,Reputation of closest school,Quality of heat/AC system,Size of yard,Size of home,Year building was built,Quality of kitchen","Very Little,25 min away,Very Low,Moderate,Very Good,500 square feet,1500 square feet,1955,Very Good","A Lot,15 min away,Moderate,Very Bad,Moderate,300 square feet,1100 square feet,2006,Very Bad",0,0,10266,2022-06-16 21:16:07,82640
5c9e829c7c5bfd00177fe952,ma_choice_v4_observers_pilot1,5c9e829c7c5bfd00177fe952,15,0,-1,-1,"Year building was built,Size of home,Size of yard,Closeness to parks,Quality of kitchen,Quality of heat/AC system,Amount of traffic,Noise pollution,Reputation of closest school","1957,1600 square feet,50 square feet,30 min away,Good,Very Bad,A Little,High,Moderate","1990,1400 square feet,450 square feet,15 min away,Bad,Very Good,A Lot,Very Low,Very Good",1,1,8282,2022-06-16 21:16:08,82647
5c9e829c7c5bfd00177fe952,ma_choice_v4_observers_pilot1,5c9e829c7c5bfd00177fe952,16,0,-1,-1,"Closeness to parks,Year building was built,Amount of traffic,Quality of kitchen,Quality of heat/AC system,Reputation of closest school,Size of home,Size of yard,Noise pollution","25 min away,2016,Very Little,Very Good,Very Good,Moderate,1100 square feet,50 square feet,Low","10 min away,1960,A Moderate Amount,Moderate,Moderate,Very Bad,700 square feet,300 square feet,High",0,0,8021,2022-06-16 21:16:17,82700
5cd3ff1ac99584000199dd15,ma_choice_v4_observers_pilot1,5cd3ff1ac99584000199dd15,7,1,-1,-1,"Noise pollution,Quality of kitchen,Closeness to parks,Size of home,Quality of heat/AC system,Year building was built,Size of yard,Amount of traffic,Reputation of closest school","Very High,Very Bad,20 min away,600 square feet,Very Good,1950,500 square feet,A Lot,Good","Very Low,Good,10 min away,900 square feet,Moderate,1995,350 square feet,Very Little,Very Bad",0,0,10265,2022-06-16 21:16:18,82705
5c9e829c7c5bfd00177fe952,ma_choice_v4_observers_pilot1,5c9e829c7c5bfd00177fe952,17,0,-1,-1,"Quality of heat/AC system,Reputation of closest school,Size of home,Amount of traffic,Quality of kitchen,Size of yard,Year building was built,Closeness to parks,Noise pollution","Bad,Good,1300 square feet,Very Little,Very Bad,550 square feet,1999,30 min away,Very Low","Very Good,Bad,700 square feet,A Lot,Moderate,200 square feet,1970,15 min away,Moderate",0,0,7732,2022-06-16 21:16:26,82753
5cd3ff1ac99584000199dd15,ma_choice_v4_observers_pilot1,5cd3ff1ac99584000199dd15,8,1,-1,-1,"Noise pollution,Reputation of closest school,Quality of heat/AC system,Amount of traffic,Closeness to parks,Quality of kitchen,Size of yard,Size of home,Year building was built","High,Good,Very Good,A Lot,10 min away,Very Bad,350 square feet,700 square feet,2013","Very Low,Very Bad,Very Bad,A Little,30 min away,Moderate,100 square feet,1200 square feet,1974",0,0,8571,2022-06-16 21:16:28,82763
5cd3ff1ac99584000199dd15,ma_choice_v4_observers_pilot1,5cd3ff1ac99584000199dd15,9,1,-1,-1,"Year building was built,Quality of kitchen,Noise pollution,Closeness to parks,Amount of traffic,Quality of heat/AC system,Size of yard,Reputation of closest school,Size of home","1950,Moderate,Very High,15 min away,A Lot,Good,150 square feet,Moderate,1400 square feet","2009,Very Good,Low,30 min away,Very Little,Bad,300 square feet,Very Good,1600 square feet",1,1,8420,2022-06-16 21:16:37,82816
5c9e829c7c5bfd00177fe952,ma_choice_v4_observers_pilot1,5c9e829c7c5bfd00177fe952,18,0,-1,-1,"Amount of traffic,Reputation of closest school,Quality of heat/AC system,Quality of kitchen,Size of yard,Noise pollution,Year building was built,Closeness to parks,Size of home","A Lot,Very Good,Good,Very Bad,150 square feet,Very High,1974,25 min away,1500 square feet","A Little,Bad,Very Bad,Very Good,400 square feet,Moderate,2016,10 min away,1100 square feet",0,0,10157,2022-06-16 21:16:37,82817
5c9e829c7c5bfd00177fe952,ma_choice_v4_observers_pilot1,5c9e829c7c5bfd00177fe952,19,0,-1,-1,"Closeness to parks,Size of home,Quality of heat/AC system,Quality of kitchen,Reputation of closest school,Size of yard,Year building was built,Amount of traffic,Noise pollution","10 min away,700 square feet,Very Bad,Very Good,Good,350 square feet,1971,Very Little,Very Low","20 min away,1200 square feet,Moderate,Bad,Bad,600 square feet,2000,A Moderate Amount,High",1,1,8044,2022-06-16 21:16:46,82874
5c9e829c7c5bfd00177fe952,ma_choice_v4_observers_pilot1,5c9e829c7c5bfd00177fe952,20,0,-1,-1,"Amount of traffic,Size of home,Quality of heat/AC system,Year building was built,Closeness to parks,Noise pollution,Size of yard,Reputation of closest school,Quality of kitchen","A Lot,1600 square feet,Moderate,2010,25 min away,Very High,300 square feet,Bad,Moderate","A Little,1000 square feet,Very Bad,1990,10 min away,Moderate,100 square feet,Very Good,Very Bad",0,0,8362,2022-06-16 21:16:56,82927
5c9e829c7c5bfd00177fe952,ma_choice_v4_observers_pilot1,5c9e829c7c5bfd00177fe952,21,0,-1,-1,"Size of home,Quality of heat/AC system,Reputation of closest school,Year building was built,Closeness to parks,Noise pollution,Size of yard,Amount of traffic,Quality of kitchen","1100 square feet,Good,Very Bad,1974,20 min away,Very Low,550 square feet,A Little,Very Bad","1400 square feet,Bad,Moderate,2015,10 min away,Very High,400 square feet,A Lot,Moderate",0,0,15491,2022-06-16 21:17:12,83014
5c9e829c7c5bfd00177fe952,ma_choice_v4_observers_pilot1,5c9e829c7c5bfd00177fe952,22,0,-1,-1,"Reputation of closest school,Size of yard,Year building was built,Amount of traffic,Noise pollution,Closeness to parks,Quality of heat/AC system,Size of home,Quality of kitchen","Bad,150 square feet,2003,A Moderate Amount,High,10 min away,Very Bad,900 square feet,Moderate","Good,350 square feet,1982,Very Little,Low,20 min away,Moderate,1500 square feet,Very Good",1,1,8109,2022-06-16 21:17:21,83056
5c9e829c7c5bfd00177fe952,ma_choice_v4_observers_pilot1,5c9e829c7c5bfd00177fe952,23,0,-1,-1,"Quality of heat/AC system,Closeness to parks,Noise pollution,Size of home,Size of yard,Year building was built,Amount of traffic,Quality of kitchen,Reputation of closest school","Good,20 min away,Very Low,1000 square feet,250 square feet,2004,Very Little,Very Bad,Good","Bad,30 min away,Very High,1700 square feet,450 square feet,1959,A Moderate Amount,Good,Bad",1,1,7805,2022-06-16 21:17:30,83114
5c9e829c7c5bfd00177fe952,ma_choice_v4_observers_pilot1,5c9e829c7c5bfd00177fe952,24,0,-1,-1,"Amount of traffic,Closeness to parks,Size of yard,Size of home,Noise pollution,Year building was built,Reputation of closest school,Quality of kitchen,Quality of heat/AC system","A Moderate Amount,25 min away,450 square feet,1300 square feet,Very Low,1953,Good,Very Good,Very Bad","Very Little,15 min away,0 square feet,1600 square feet,Very High,1987,Bad,Moderate,Very Good",1,1,8633,2022-06-16 21:17:40,83166
5c9e829c7c5bfd00177fe952,ma_choice_v4_observers_pilot1,5c9e829c7c5bfd00177fe952,25,0,-1,-1,"Size of yard,Noise pollution,Size of home,Reputation of closest school,Quality of heat/AC system,Quality of kitchen,Year building was built,Closeness to parks,Amount of traffic","150 square feet,High,1500 square feet,Moderate,Very Good,Very Bad,1951,20 min away,A Moderate Amount","450 square feet,Low,1300 square feet,Very Bad,Bad,Very Good,2018,30 min away,Very Little",0,0,8522,2022-06-16 21:17:49,83227
5c9e829c7c5bfd00177fe952,ma_choice_v4_observers_pilot1,5c9e829c7c5bfd00177fe952,26,0,-1,-1,"Reputation of closest school,Quality of heat/AC system,Size of home,Quality of kitchen,Size of yard,Year building was built,Noise pollution,Amount of traffic,Closeness to parks","Good,Very Good,800 square feet,Good,500 square feet,2014,Low,A Lot,25 min away","Very Bad,Moderate,1500 square feet,Very Bad,250 square feet,1990,Very High,Very Little,15 min away",1,1,11674,2022-06-16 21:18:02,83293
5c9e829c7c5bfd00177fe952,ma_choice_v4_observers_pilot1,5c9e829c7c5bfd00177fe952,27,0,-1,-1,"Noise pollution,Amount of traffic,Quality of kitchen,Quality of heat/AC system,Closeness to parks,Size of home,Reputation of closest school,Year building was built,Size of yard","Very Low,A Lot,Very Bad,Good,10 min away,1200 square feet,Bad,1951,350 square feet","Moderate,A Little,Very Good,Very Bad,20 min away,1700 square feet,Good,1980,150 square feet",0,0,8122,2022-06-16 21:18:11,83342
5c9e829c7c5bfd00177fe952,ma_choice_v4_observers_pilot1,5c9e829c7c5bfd00177fe952,28,0,-1,-1,"Year building was built,Size of yard,Amount of traffic,Quality of kitchen,Closeness to parks,Noise pollution,Reputation of closest school,Size of home,Quality of heat/AC system","1954,100 square feet,Very Little,Very Bad,10 min away,Very Low,Bad,1000 square feet,Bad","2008,450 square feet,A Moderate Amount,Moderate,20 min away,Very High,Good,1400 square feet,Good",1,1,10317,2022-06-16 21:18:22,83411
5cd3ff1ac99584000199dd15,ma_choice_v4_observers_pilot1,5cd3ff1ac99584000199dd15,0,0,-1,-1,"Year building was built,Amount of traffic,Noise pollution,Size of home,Reputation of closest school,Size of yard,Quality of heat/AC system,Closeness to parks,Quality of kitchen","1974,A Moderate Amount,High,1500 square feet,Very Good,550 square feet,Bad,20 min away,Very Bad","2016,Very Little,Very Low,700 square feet,Moderate,200 square feet,Very Good,10 min away,Good",1,1,62211,2022-06-16 21:18:24,83420
5c9e829c7c5bfd00177fe952,ma_choice_v4_observers_pilot1,5c9e829c7c5bfd00177fe952,29,0,-1,-1,"Noise pollution,Quality of heat/AC system,Closeness to parks,Reputation of closest school,Year building was built,Size of home,Quality of kitchen,Size of yard,Amount of traffic","Low,Very Good,10 min away,Bad,1983,1000 square feet,Very Bad,250 square feet,A Moderate Amount","High,Moderate,25 min away,Good,2012,1500 square feet,Moderate,550 square feet,Very Little",0,0,8923,2022-06-16 21:18:32,83467
5c9e829c7c5bfd00177fe952,ma_choice_v4_observers_pilot1,5c9e829c7c5bfd00177fe952,30,0,-1,-1,"Closeness to parks,Size of home,Noise pollution,Quality of heat/AC system,Reputation of closest school,Size of yard,Amount of traffic,Quality of kitchen,Year building was built","20 min away,1600 square feet,Moderate,Bad,Very Good,50 square feet,A Moderate Amount,Very Bad,1951","30 min away,900 square feet,Very Low,Very Good,Bad,300 square feet,Very Little,Moderate,2000",0,0,8130,2022-06-16 21:18:41,83517
6074bfb81bc1c8cc50879ce4,ma_choice_v4_observers_pilot1,6074bfb81bc1c8cc50879ce4,0,1,-1,-1,"Closeness to parks,Amount of traffic,Size of home,Reputation of closest school,Year building was built,Quality of heat/AC system,Size of yard,Quality of kitchen,Noise pollution","10 min away,A Little,1000 square feet,Very Bad,1972,Very Good,350 square feet,Very Bad,Very High","25 min away,A Lot,1300 square feet,Moderate,2016,Moderate,150 square feet,Good,Low",0,0,131176,2022-06-16 21:18:50,83573
5c9e829c7c5bfd00177fe952,ma_choice_v4_observers_pilot1,5c9e829c7c5bfd00177fe952,31,0,-1,-1,"Quality of heat/AC system,Closeness to parks,Noise pollution,Size of yard,Quality of kitchen,Amount of traffic,Reputation of closest school,Year building was built,Size of home","Very Bad,30 min away,Low,100 square feet,Good,A Lot,Very Good,2006,1100 square feet","Very Good,10 min away,Very High,550 square feet,Very Bad,A Little,Moderate,1957,1400 square feet",1,1,8257,2022-06-16 21:18:51,83576
5c9e829c7c5bfd00177fe952,ma_choice_v4_observers_pilot1,5c9e829c7c5bfd00177fe952,32,0,-1,-1,"Size of yard,Reputation of closest school,Noise pollution,Size of home,Closeness to parks,Amount of traffic,Quality of heat/AC system,Quality of kitchen,Year building was built","150 square feet,Very Bad,Low,700 square feet,25 min away,A Little,Bad,Bad,2010","400 square feet,Good,Very High,1500 square feet,15 min away,A Lot,Good,Very Good,1986",1,1,8240,2022-06-16 21:19:00,83627
5c9e829c7c5bfd00177fe952,ma_choice_v4_observers_pilot1,5c9e829c7c5bfd00177fe952,33,0,-1,-1,"Closeness to parks,Amount of traffic,Size of home,Year building was built,Size of yard,Quality of heat/AC system,Reputation of closest school,Quality of kitchen,Noise pollution","20 min away,A Lot,1600 square feet,1964,200 square feet,Good,Bad,Very Good,Very High","30 min away,A Little,1200 square feet,2000,350 square feet,Bad,Good,Very Bad,Low",0,0,9186,2022-06-16 21:19:10,83679
5c9e829c7c5bfd00177fe952,ma_choice_v4_observers_pilot1,5c9e829c7c5bfd00177fe952,34,0,-1,-1,"Closeness to parks,Noise pollution,Reputation of closest school,Amount of traffic,Year building was built,Quality of kitchen,Size of home,Quality of heat/AC system,Size of yard","15 min away,Moderate,Very Good,A Little,2009,Very Good,1200 square feet,Very Good,50 square feet","30 min away,Very High,Bad,A Lot,1964,Very Bad,1500 square feet,Very Bad,450 square feet",0,0,8525,2022-06-16 21:19:20,83729
5c9e829c7c5bfd00177fe952,ma_choice_v4_observers_pilot1,5c9e829c7c5bfd00177fe952,35,0,-1,-1,"Closeness to parks,Size of yard,Year building was built,Reputation of closest school,Noise pollution,Amount of traffic,Quality of heat/AC system,Size of home,Quality of kitchen","25 min away,300 square feet,1983,Bad,Moderate,A Lot,Moderate,1800 square feet,Very Bad","15 min away,0 square feet,2003,Very Good,Very High,A Little,Very Bad,700 square feet,Good",0,0,8502,2022-06-16 21:19:29,83785
5c9e829c7c5bfd00177fe952,ma_choice_v4_observers_pilot1,5c9e829c7c5bfd00177fe952,36,0,-1,-1,"Closeness to parks,Year building was built,Quality of kitchen,Noise pollution,Reputation of closest school,Size of home,Quality of heat/AC system,Size of yard,Amount of traffic","25 min away,2004,Very Good,High,Good,1700 square feet,Very Good,200 square feet,A Little","15 min away,1961,Very Bad,Very Low,Bad,1000 square feet,Moderate,600 square feet,A Lot",0,0,8611,2022-06-16 21:19:39,83834
5c9e829c7c5bfd00177fe952,ma_choice_v4_observers_pilot1,5c9e829c7c5bfd00177fe952,37,0,-1,-1,"Closeness to parks,Noise pollution,Reputation of closest school,Amount of traffic,Size of yard,Quality of kitchen,Size of home,Quality of heat/AC system,Year building was built","25 min away,Low,Good,A Little,250 square feet,Moderate,1100 square feet,Moderate,2006","10 min away,Very High,Bad,A Lot,450 square feet,Very Bad,1500 square feet,Very Bad,1974",0,0,7914,2022-06-16 21:19:48,83884
5c9e829c7c5bfd00177fe952,ma_choice_v4_observers_pilot1,5c9e829c7c5bfd00177fe952,38,0,-1,-1,"Size of yard,Closeness to parks,Reputation of closest school,Quality of kitchen,Quality of heat/AC system,Size of home,Noise pollution,Amount of traffic,Year building was built","350 square feet,20 min away,Bad,Very Bad,Moderate,600 square feet,High,A Lot,1989","50 square feet,10 min away,Very Good,Very Good,Very Good,1600 square feet,Very Low,A Little,1961",1,1,8480,2022-06-16 21:19:57,83931
5c9e829c7c5bfd00177fe952,ma_choice_v4_observers_pilot1,5c9e829c7c5bfd00177fe952,39,0,-1,-1,"Quality of heat/AC system,Quality of kitchen,Amount of traffic,Size of home,Noise pollution,Closeness to parks,Reputation of closest school,Size of yard,Year building was built","Very Good,Moderate,Very Little,800 square feet,Very Low,15 min away,Bad,300 square feet,1966","Moderate,Very Bad,A Lot,1400 square feet,Moderate,30 min away,Good,100 square feet,1987",1,1,8207,2022-06-16 21:20:06,83981
5c9e829c7c5bfd00177fe952,ma_choice_v4_observers_pilot1,5c9e829c7c5bfd00177fe952,40,0,-1,-1,"Size of yard,Size of home,Reputation of closest school,Amount of traffic,Quality of kitchen,Year building was built,Closeness to parks,Quality of heat/AC system,Noise pollution","600 square feet,1600 square feet,Bad,A Lot,Very Good,2001,25 min away,Bad,Very High","350 square feet,800 square feet,Good,Very Little,Very Bad,1975,15 min away,Good,Moderate",0,0,7918,2022-06-16 21:20:15,84030
5c9e829c7c5bfd00177fe952,ma_choice_v4_observers_pilot1,5c9e829c7c5bfd00177fe952,41,0,-1,-1,"Quality of kitchen,Size of home,Amount of traffic,Closeness to parks,Year building was built,Quality of heat/AC system,Reputation of closest school,Noise pollution,Size of yard","Moderate,1200 square feet,Very Little,10 min away,1962,Very Good,Moderate,Moderate,250 square feet","Very Bad,700 square feet,A Moderate Amount,25 min away,1998,Very Bad,Very Good,Very Low,400 square feet",0,0,9386,2022-06-16 21:20:26,84096
5c9e829c7c5bfd00177fe952,ma_choice_v4_observers_pilot1,5c9e829c7c5bfd00177fe952,42,0,-1,-1,"Size of home,Closeness to parks,Quality of kitchen,Noise pollution,Year building was built,Amount of traffic,Reputation of closest school,Size of yard,Quality of heat/AC system","900 square feet,10 min away,Moderate,Very Low,1975,A Moderate Amount,Bad,200 square feet,Moderate","1200 square feet,30 min away,Very Good,Very High,2013,Very Little,Good,500 square feet,Very Good",1,1,8507,2022-06-16 21:20:35,84146
6074bfb81bc1c8cc50879ce4,ma_choice_v4_observers_pilot1,6074bfb81bc1c8cc50879ce4,1,1,-1,-1,"Quality of kitchen,Amount of traffic,Reputation of closest school,Year building was built,Closeness to parks,Size of yard,Size of home,Noise pollution,Quality of heat/AC system","Very Bad,A Little,Very Bad,2020,30 min away,200 square feet,1500 square feet,Very High,Good","Moderate,A Lot,Good,1974,20 min away,450 square feet,1100 square feet,Very Low,Very Bad",1,1,107100,2022-06-16 21:20:38,84166
5c9e829c7c5bfd00177fe952,ma_choice_v4_observers_pilot1,5c9e829c7c5bfd00177fe952,43,0,-1,-1,"Closeness to parks,Quality of kitchen,Amount of traffic,Noise pollution,Size of home,Reputation of closest school,Year building was built,Size of yard,Quality of heat/AC system","30 min away,Very Good,A Moderate Amount,Very High,1300 square feet,Very Good,1957,350 square feet,Good","10 min away,Moderate,Very Little,Low,800 square feet,Moderate,1999,0 square feet,Very Bad",0,0,7721,2022-06-16 21:20:44,84193
5cd3ff1ac99584000199dd15,ma_choice_v4_observers_pilot1,5cd3ff1ac99584000199dd15,1,0,-1,-1,"Quality of kitchen,Amount of traffic,Reputation of closest school,Year building was built,Closeness to parks,Size of home,Quality of heat/AC system,Size of yard,Noise pollution","Good,A Little,Bad,1985,10 min away,700 square feet,Moderate,250 square feet,Very Low","Bad,A Lot,Good,2010,20 min away,1400 square feet,Very Good,400 square feet,High",1,1,146783,2022-06-16 21:20:51,84239
5c9e829c7c5bfd00177fe952,ma_choice_v4_observers_pilot1,5c9e829c7c5bfd00177fe952,44,0,-1,-1,"Quality of kitchen,Size of home,Closeness to parks,Amount of traffic,Reputation of closest school,Size of yard,Year building was built,Quality of heat/AC system,Noise pollution","Bad,1500 square feet,30 min away,Very Little,Very Bad,600 square feet,2013,Good,Moderate","Very Good,900 square feet,10 min away,A Moderate Amount,Good,400 square feet,1964,Bad,Very Low",0,0,8155,2022-06-16 21:20:53,84251
5c9e829c7c5bfd00177fe952,ma_choice_v4_observers_pilot1,5c9e829c7c5bfd00177fe952,45,0,-1,-1,"Amount of traffic,Noise pollution,Year building was built,Size of home,Size of yard,Quality of kitchen,Closeness to parks,Reputation of closest school,Quality of heat/AC system","Very Little,Low,1984,1500 square feet,600 square feet,Good,15 min away,Very Bad,Bad","A Moderate Amount,Very High,2007,1100 square feet,350 square feet,Bad,30 min away,Good,Very Good",1,1,45044,2022-06-16 21:21:39,84511
6074bfb81bc1c8cc50879ce4,ma_choice_v4_observers_pilot1,6074bfb81bc1c8cc50879ce4,2,1,-1,-1,"Quality of kitchen,Reputation of closest school,Year building was built,Size of home,Size of yard,Amount of traffic,Noise pollution,Closeness to parks,Quality of heat/AC system","Good,Good,1971,1100 square feet,600 square feet,A Lot,Low,30 min away,Good","Bad,Very Bad,2008,1400 square feet,300 square feet,Very Little,High,10 min away,Bad",1,1,65663,2022-06-16 21:21:45,84539
5c9e829c7c5bfd00177fe952,ma_choice_v4_observers_pilot1,5c9e829c7c5bfd00177fe952,46,0,-1,-1,"Size of yard,Amount of traffic,Reputation of closest school,Size of home,Noise pollution,Quality of kitchen,Quality of heat/AC system,Year building was built,Closeness to parks","550 square feet,A Moderate Amount,Good,1700 square feet,Very Low,Very Bad,Very Bad,1994,15 min away","50 square feet,Very Little,Bad,1200 square feet,High,Moderate,Moderate,2018,30 min away",0,0,7703,2022-06-16 21:21:48,84554
5cd3ff1ac99584000199dd15,ma_choice_v4_observers_pilot1,5cd3ff1ac99584000199dd15,2,0,-1,-1,"Quality of heat/AC system,Year building was built,Quality of kitchen,Size of yard,Size of home,Closeness to parks,Noise pollution,Reputation of closest school,Amount of traffic","Good,1950,Bad,450 square feet,700 square feet,10 min away,High,Good,Very Little","Very Bad,1979,Very Good,50 square feet,1200 square feet,25 min away,Very Low,Bad,A Moderate Amount",0,0,63530,2022-06-16 21:21:56,84594
5c9e829c7c5bfd00177fe952,ma_choice_v4_observers_pilot1,5c9e829c7c5bfd00177fe952,47,0,-1,-1,"Quality of heat/AC system,Closeness to parks,Size of home,Quality of kitchen,Amount of traffic,Reputation of closest school,Year building was built,Noise pollution,Size of yard","Moderate,10 min away,700 square feet,Good,A Little,Bad,1985,Very Low,250 square feet","Very Good,20 min away,1400 square feet,Bad,A Lot,Good,2010,High,400 square feet",1,1,9849,2022-06-16 21:21:59,84608
5cd3ff1ac99584000199dd15,ma_choice_v4_observers_pilot1,5cd3ff1ac99584000199dd15,3,0,-1,-1,"Quality of heat/AC system,Noise pollution,Amount of traffic,Year building was built,Size of home,Closeness to parks,Reputation of closest school,Quality of kitchen,Size of yard","Bad,Very High,A Moderate Amount,2005,1500 square feet,10 min away,Very Bad,Very Bad,500 square feet","Very Good,Moderate,Very Little,1982,700 square feet,30 min away,Very Good,Moderate,100 square feet",1,1,11320,2022-06-16 21:22:08,84663
5c9e829c7c5bfd00177fe952,ma_choice_v4_observers_pilot1,5c9e829c7c5bfd00177fe952,48,0,-1,-1,"Closeness to parks,Amount of traffic,Quality of kitchen,Reputation of closest school,Size of home,Size of yard,Noise pollution,Quality of heat/AC system,Year building was built","10 min away,Very Little,Very Good,Very Bad,1700 square feet,200 square feet,Very Low,Very Good,1960","25 min away,A Moderate Amount,Moderate,Moderate,1100 square feet,450 square feet,High,Moderate,2013",0,0,8724,2022-06-16 21:22:08,84666
5c9e829c7c5bfd00177fe952,ma_choice_v4_observers_pilot1,5c9e829c7c5bfd00177fe952,49,0,-1,-1,"Noise pollution,Size of yard,Reputation of closest school,Closeness to parks,Year building was built,Amount of traffic,Quality of heat/AC system,Quality of kitchen,Size of home","Very High,600 square feet,Good,20 min away,1962,A Lot,Good,Good,800 square feet","Very Low,250 square feet,Bad,10 min away,2005,A Little,Very Bad,Very Bad,1800 square feet",1,1,7691,2022-06-16 21:22:17,84715
5cd3ff1ac99584000199dd15,ma_choice_v4_observers_pilot1,5cd3ff1ac99584000199dd15,4,0,-1,-1,"Quality of kitchen,Size of yard,Closeness to parks,Year building was built,Size of home,Quality of heat/AC system,Noise pollution,Amount of traffic,Reputation of closest school","Very Bad,600 square feet,15 min away,1961,1000 square feet,Moderate,Very Low,A Lot,Bad","Very Good,200 square feet,25 min away,2004,1700 square feet,Very Good,High,A Little,Good",1,1,9017,2022-06-16 21:22:18,84718
5c9e829c7c5bfd00177fe952,ma_choice_v4_observers_pilot1,5c9e829c7c5bfd00177fe952,50,0,-1,-1,"Noise pollution,Reputation of closest school,Size of yard,Size of home,Quality of heat/AC system,Year building was built,Quality of kitchen,Closeness to parks,Amount of traffic","Very Low,Very Good,350 square feet,1100 square feet,Very Bad,2006,Bad,20 min away,A Little","High,Moderate,500 square feet,1600 square feet,Very Good,1968,Very Good,10 min away,A Lot",1,1,7836,2022-06-16 21:22:26,84768
6074bfb81bc1c8cc50879ce4,ma_choice_v4_observers_pilot1,6074bfb81bc1c8cc50879ce4,3,1,-1,-1,"Closeness to parks,Reputation of closest school,Size of yard,Size of home,Year building was built,Quality of heat/AC system,Quality of kitchen,Amount of traffic,Noise pollution","20 min away,Moderate,450 square feet,1800 square feet,2005,Moderate,Very Bad,Very Little,Very Low","30 min away,Very Good,150 square feet,1400 square feet,1970,Very Bad,Moderate,A Lot,Moderate",0,0,57017,2022-06-16 21:22:43,84854
5c9e829c7c5bfd00177fe952,ma_choice_v4_observers_pilot1,5c9e829c7c5bfd00177fe952,51,0,-1,-1,"Amount of traffic,Closeness to parks,Size of home,Quality of kitchen,Noise pollution,Quality of heat/AC system,Year building was built,Reputation of closest school,Size of yard","A Lot,25 min away,1000 square feet,Very Bad,Low,Very Bad,2010,Good,400 square feet","Very Little,15 min away,700 square feet,Good,High,Moderate,1969,Very Bad,150 square feet",0,0,48868,2022-06-16 21:23:16,85018
5cd3ff1ac99584000199dd15,ma_choice_v4_observers_pilot1,5cd3ff1ac99584000199dd15,5,0,-1,-1,"Quality of kitchen,Year building was built,Closeness to parks,Noise pollution,Size of yard,Quality of heat/AC system,Amount of traffic,Size of home,Reputation of closest school","Very Bad,1951,20 min away,Moderate,50 square feet,Bad,A Moderate Amount,1600 square feet,Very Good","Moderate,2000,30 min away,Very Low,300 square feet,Very Good,Very Little,900 square feet,Bad",0,0,61589,2022-06-16 21:23:20,85035
6074bfb81bc1c8cc50879ce4,ma_choice_v4_observers_pilot1,6074bfb81bc1c8cc50879ce4,4,1,-1,-1,"Noise pollution,Quality of kitchen,Year building was built,Size of yard,Size of home,Quality of heat/AC system,Reputation of closest school,Amount of traffic,Closeness to parks","Very Low,Good,1973,400 square feet,1100 square feet,Very Good,Good,A Moderate Amount,25 min away","High,Bad,2012,50 square feet,1300 square feet,Very Bad,Bad,Very Little,15 min away",0,0,61960,2022-06-16 21:23:46,85161
5cd3ff1ac99584000199dd15,ma_choice_v4_observers_pilot1,5cd3ff1ac99584000199dd15,6,0,-1,-1,"Noise pollution,Closeness to parks,Amount of traffic,Year building was built,Quality of kitchen,Quality of heat/AC system,Reputation of closest school,Size of yard,Size of home","High,30 min away,A Lot,2016,Very Good,Very Good,Very Good,450 square feet,600 square feet","Low,15 min away,A Little,1954,Moderate,Moderate,Very Bad,100 square feet,1000 square feet",0,0,77028,2022-06-16 21:24:38,85401
5c9e829c7c5bfd00177fe952,ma_choice_v4_observers_pilot1,5c9e829c7c5bfd00177fe952,52,0,-1,-1,"Reputation of closest school,Quality of heat/AC system,Noise pollution,Quality of kitchen,Closeness to parks,Size of home,Size of yard,Amount of traffic,Year building was built","Very Bad,Bad,Low,Very Bad,25 min away,1100 square feet,0 square feet,A Lot,2013","Moderate,Good,High,Moderate,15 min away,600 square feet,600 square feet,Very Little,1968",0,0,81124,2022-06-16 21:24:38,85403
6074bfb81bc1c8cc50879ce4,ma_choice_v4_observers_pilot1,6074bfb81bc1c8cc50879ce4,5,1,-1,-1,"Reputation of closest school,Noise pollution,Quality of heat/AC system,Amount of traffic,Closeness to parks,Size of yard,Size of home,Quality of kitchen,Year building was built","Good,High,Very Good,A Lot,10 min away,350 square feet,700 square feet,Very Bad,2013","Very Bad,Very Low,Very Bad,A Little,30 min away,100 square feet,1200 square feet,Moderate,1974",1,1,54708,2022-06-16 21:24:42,85420
5c9e829c7c5bfd00177fe952,ma_choice_v4_observers_pilot1,5c9e829c7c5bfd00177fe952,53,0,-1,-1,"Quality of kitchen,Reputation of closest school,Noise pollution,Closeness to parks,Amount of traffic,Size of yard,Quality of heat/AC system,Year building was built,Size of home","Very Bad,Bad,Moderate,10 min away,Very Little,200 square feet,Bad,1995,1500 square feet","Moderate,Good,Very High,25 min away,A Lot,50 square feet,Very Good,1958,1700 square feet",1,1,8727,2022-06-16 21:24:48,85455
5c9e829c7c5bfd00177fe952,ma_choice_v4_observers_pilot1,5c9e829c7c5bfd00177fe952,54,0,-1,-1,"Noise pollution,Size of yard,Size of home,Closeness to parks,Quality of heat/AC system,Year building was built,Quality of kitchen,Amount of traffic,Reputation of closest school","Very High,0 square feet,1700 square feet,15 min away,Good,2007,Very Good,A Lot,Bad","Low,250 square feet,1200 square feet,25 min away,Very Bad,1977,Very Bad,A Little,Very Good",0,0,8269,2022-06-16 21:24:57,85497
5cd3ff1ac99584000199dd15,ma_choice_v4_observers_pilot1,5cd3ff1ac99584000199dd15,7,0,-1,-1,"Closeness to parks,Size of home,Year building was built,Quality of kitchen,Amount of traffic,Quality of heat/AC system,Reputation of closest school,Noise pollution,Size of yard","25 min away,1000 square feet,1992,Very Bad,A Lot,Good,Bad,Very Low,350 square feet","10 min away,1600 square feet,1956,Very Good,Very Little,Bad,Very Good,Very High,50 square feet",1,1,26924,2022-06-16 21:25:05,85533
5c9e829c7c5bfd00177fe952,ma_choice_v4_observers_pilot1,5c9e829c7c5bfd00177fe952,55,0,-1,-1,"Quality of kitchen,Size of home,Amount of traffic,Quality of heat/AC system,Closeness to parks,Year building was built,Reputation of closest school,Size of yard,Noise pollution","Good,900 square feet,Very Little,Very Bad,25 min away,2001,Very Good,300 square feet,Low","Very Bad,1200 square feet,A Lot,Good,10 min away,1965,Moderate,50 square feet,High",1,1,8201,2022-06-16 21:25:06,85537
5cd3ff1ac99584000199dd15,ma_choice_v4_observers_pilot1,5cd3ff1ac99584000199dd15,8,0,-1,-1,"Quality of heat/AC system,Amount of traffic,Size of home,Noise pollution,Quality of kitchen,Size of yard,Closeness to parks,Reputation of closest school,Year building was built","Very Bad,A Moderate Amount,700 square feet,Very High,Bad,550 square feet,30 min away,Moderate,1959","Moderate,Very Little,1100 square feet,Low,Good,350 square feet,10 min away,Very Good,2010",1,1,9746,2022-06-16 21:25:16,85589
5c9e829c7c5bfd00177fe952,ma_choice_v4_observers_pilot1,5c9e829c7c5bfd00177fe952,56,0,-1,-1,"Size of home,Size of yard,Quality of kitchen,Year building was built,Amount of traffic,Quality of heat/AC system,Reputation of closest school,Closeness to parks,Noise pollution","1700 square feet,300 square feet,Very Bad,2010,A Moderate Amount,Bad,Bad,20 min away,Moderate","900 square feet,550 square feet,Very Good,1970,Very Little,Good,Very Good,30 min away,Very High",0,0,10489,2022-06-16 21:25:18,85599
5cd3ff1ac99584000199dd15,ma_choice_v4_observers_pilot1,5cd3ff1ac99584000199dd15,9,0,-1,-1,"Closeness to parks,Amount of traffic,Year building was built,Size of yard,Quality of kitchen,Noise pollution,Quality of heat/AC system,Reputation of closest school,Size of home","15 min away,A Little,1963,200 square feet,Very Good,High,Moderate,Bad,700 square feet","25 min away,A Lot,1983,450 square feet,Bad,Very Low,Very Bad,Good,1000 square feet",1,1,8246,2022-06-16 21:25:25,85635
5c9e829c7c5bfd00177fe952,ma_choice_v4_observers_pilot1,5c9e829c7c5bfd00177fe952,57,0,-1,-1,"Noise pollution,Size of yard,Year building was built,Size of home,Reputation of closest school,Amount of traffic,Quality of heat/AC system,Quality of kitchen,Closeness to parks","Moderate,50 square feet,2016,1700 square feet,Good,A Lot,Good,Moderate,30 min away","Very High,500 square feet,1993,1100 square feet,Very Bad,A Little,Very Bad,Very Bad,15 min away",0,0,13269,2022-06-16 21:25:32,85672
5cd3ff1ac99584000199dd15,ma_choice_v4_observers_pilot1,5cd3ff1ac99584000199dd15,10,0,-1,-1,"Size of yard,Reputation of closest school,Closeness to parks,Size of home,Amount of traffic,Year building was built,Noise pollution,Quality of kitchen,Quality of heat/AC system","350 square feet,Very Good,10 min away,1300 square feet,A Moderate Amount,1954,Low,Very Good,Bad","500 square feet,Moderate,20 min away,1600 square feet,Very Little,2013,High,Bad,Very Good",1,1,8831,2022-06-16 21:25:35,85684
5c9e829c7c5bfd00177fe952,ma_choice_v4_observers_pilot1,5c9e829c7c5bfd00177fe952,58,0,-1,-1,"Closeness to parks,Size of yard,Noise pollution,Quality of kitchen,Quality of heat/AC system,Reputation of closest school,Size of home,Amount of traffic,Year building was built","30 min away,300 square feet,High,Very Bad,Very Bad,Bad,1000 square feet,A Little,1977","10 min away,50 square feet,Low,Very Good,Very Good,Good,1700 square feet,A Lot,1953",1,1,8446,2022-06-16 21:25:41,85722
5cd3ff1ac99584000199dd15,ma_choice_v4_observers_pilot1,5cd3ff1ac99584000199dd15,11,0,-1,-1,"Quality of kitchen,Size of home,Size of yard,Quality of heat/AC system,Reputation of closest school,Amount of traffic,Noise pollution,Year building was built,Closeness to parks","Bad,1200 square feet,250 square feet,Moderate,Good,Very Little,Very High,1954,10 min away","Good,1500 square feet,0 square feet,Very Good,Bad,A Moderate Amount,Very Low,1980,20 min away",0,0,9188,2022-06-16 21:25:45,85736
6074bfb81bc1c8cc50879ce4,ma_choice_v4_observers_pilot1,6074bfb81bc1c8cc50879ce4,6,1,-1,-1,"Reputation of closest school,Year building was built,Size of home,Size of yard,Closeness to parks,Quality of heat/AC system,Noise pollution,Amount of traffic,Quality of kitchen","Moderate,1955,1500 square feet,500 square feet,25 min away,Very Good,Very Low,Very Little,Very Good","Very Bad,2006,1100 square feet,300 square feet,15 min away,Moderate,Moderate,A Lot,Very Bad",0,0,63640,2022-06-16 21:25:46,85745
5c9e829c7c5bfd00177fe952,ma_choice_v4_observers_pilot1,5c9e829c7c5bfd00177fe952,59,0,-1,-1,"Reputation of closest school,Size of home,Noise pollution,Amount of traffic,Quality of heat/AC system,Size of yard,Year building was built,Closeness to parks,Quality of kitchen","Moderate,1300 square feet,Low,A Lot,Very Bad,200 square feet,1991,15 min away,Moderate","Very Bad,1000 square feet,Very High,A Little,Very Good,500 square feet,2015,25 min away,Very Bad",1,1,18165,2022-06-16 21:26:01,85809
5c9e829c7c5bfd00177fe952,ma_choice_v4_observers_pilot1,5c9e829c7c5bfd00177fe952,60,0,-1,-1,"Year building was built,Quality of kitchen,Closeness to parks,Size of yard,Noise pollution,Quality of heat/AC system,Reputation of closest school,Amount of traffic,Size of home","1968,Very Good,15 min away,300 square feet,Very Low,Good,Moderate,A Lot,1000 square feet","2019,Bad,30 min away,0 square feet,Very High,Bad,Very Good,A Little,600 square feet",0,0,8643,2022-06-16 21:26:10,85856
5cd3ff1ac99584000199dd15,ma_choice_v4_observers_pilot1,5cd3ff1ac99584000199dd15,12,0,-1,-1,"Amount of traffic,Closeness to parks,Quality of heat/AC system,Reputation of closest school,Size of home,Quality of kitchen,Size of yard,Year building was built,Noise pollution","A Lot,25 min away,Very Good,Moderate,1700 square feet,Very Bad,100 square feet,1950,High","A Little,10 min away,Bad,Very Bad,900 square feet,Moderate,300 square feet,1988,Low",0,0,28237,2022-06-16 21:26:14,85872
5c9e829c7c5bfd00177fe952,ma_choice_v4_observers_pilot1,5c9e829c7c5bfd00177fe952,61,0,-1,-1,"Reputation of closest school,Quality of kitchen,Size of yard,Size of home,Closeness to parks,Amount of traffic,Year building was built,Quality of heat/AC system,Noise pollution","Bad,Very Good,350 square feet,1300 square feet,10 min away,A Lot,1984,Very Bad,Very Low","Good,Moderate,0 square feet,700 square feet,30 min away,Very Little,1954,Very Good,Moderate",0,0,8948,2022-06-16 21:26:20,85901
6074bfb81bc1c8cc50879ce4,ma_choice_v4_observers_pilot1,6074bfb81bc1c8cc50879ce4,7,1,-1,-1,"Quality of kitchen,Closeness to parks,Noise pollution,Amount of traffic,Size of home,Reputation of closest school,Quality of heat/AC system,Size of yard,Year building was built","Very Bad,20 min away,Very High,A Lot,600 square feet,Good,Very Good,500 square feet,1950","Good,10 min away,Very Low,Very Little,900 square feet,Very Bad,Moderate,350 square feet,1995",1,1,41335,2022-06-16 21:26:29,85937
5c9e829c7c5bfd00177fe952,ma_choice_v4_observers_pilot1,5c9e829c7c5bfd00177fe952,62,0,-1,-1,"Closeness to parks,Quality of kitchen,Quality of heat/AC system,Reputation of closest school,Noise pollution,Size of home,Size of yard,Year building was built,Amount of traffic","15 min away,Bad,Very Good,Very Bad,Low,1100 square feet,300 square feet,1964,Very Little","25 min away,Good,Moderate,Good,High,700 square feet,50 square feet,2000,A Moderate Amount",0,0,29237,2022-06-16 21:26:50,86037
5c9e829c7c5bfd00177fe952,ma_choice_v4_observers_pilot1,5c9e829c7c5bfd00177fe952,63,0,-1,-1,"Amount of traffic,Year building was built,Size of home,Reputation of closest school,Quality of heat/AC system,Noise pollution,Quality of kitchen,Size of yard,Closeness to parks","A Little,1950,900 square feet,Bad,Very Bad,High,Very Good,100 square feet,20 min away","A Lot,1971,1300 square feet,Very Good,Very Good,Low,Moderate,400 square feet,30 min away",1,1,8764,2022-06-16 21:27:00,86076
5c9e829c7c5bfd00177fe952,ma_choice_v4_observers_pilot1,5c9e829c7c5bfd00177fe952,64,0,-1,-1,"Reputation of closest school,Closeness to parks,Quality of kitchen,Quality of heat/AC system,Year building was built,Amount of traffic,Size of home,Noise pollution,Size of yard","Very Good,20 min away,Very Bad,Bad,1974,A Moderate Amount,1500 square feet,High,550 square feet","Moderate,10 min away,Good,Very Good,2016,Very Little,700 square feet,Very Low,200 square feet",0,0,9336,2022-06-16 21:27:10,86130
5c9e829c7c5bfd00177fe952,ma_choice_v4_observers_pilot1,5c9e829c7c5bfd00177fe952,65,0,-1,-1,"Closeness to parks,Quality of heat/AC system,Reputation of closest school,Year building was built,Noise pollution,Size of yard,Size of home,Amount of traffic,Quality of kitchen","30 min away,Very Good,Very Good,1951,Very High,100 square feet,1100 square feet,Very Little,Good","15 min away,Moderate,Moderate,2006,Low,300 square feet,1400 square feet,A Lot,Very Bad",1,1,11914,2022-06-16 21:27:23,86183
6074bfb81bc1c8cc50879ce4,ma_choice_v4_observers_pilot1,6074bfb81bc1c8cc50879ce4,8,1,-1,-1,"Year building was built,Closeness to parks,Quality of heat/AC system,Quality of kitchen,Amount of traffic,Reputation of closest school,Noise pollution,Size of home,Size of yard","1953,30 min away,Very Good,Bad,A Lot,Moderate,Low,800 square feet,250 square feet","1993,20 min away,Moderate,Very Good,A Little,Very Good,High,1700 square feet,100 square feet",1,1,56002,2022-06-16 21:27:26,86196
5c9e829c7c5bfd00177fe952,ma_choice_v4_observers_pilot1,5c9e829c7c5bfd00177fe952,66,0,-1,-1,"Quality of kitchen,Closeness to parks,Reputation of closest school,Size of home,Quality of heat/AC system,Amount of traffic,Year building was built,Size of yard,Noise pollution","Bad,25 min away,Very Good,900 square feet,Moderate,Very Little,1961,150 square feet,High","Good,10 min away,Bad,1800 square feet,Very Good,A Moderate Amount,2003,600 square feet,Very Low",1,1,8355,2022-06-16 21:27:33,86224
5c9e829c7c5bfd00177fe952,ma_choice_v4_observers_pilot1,5c9e829c7c5bfd00177fe952,67,0,-1,-1,"Reputation of closest school,Amount of traffic,Year building was built,Size of yard,Quality of heat/AC system,Size of home,Closeness to parks,Quality of kitchen,Noise pollution","Moderate,Very Little,2017,150 square feet,Good,900 square feet,15 min away,Very Bad,Moderate","Very Good,A Moderate Amount,1983,500 square feet,Bad,600 square feet,30 min away,Very Good,Very Low",0,0,8282,2022-06-16 21:27:42,86259
5c9e829c7c5bfd00177fe952,ma_choice_v4_observers_pilot1,5c9e829c7c5bfd00177fe952,68,0,-1,-1,"Year building was built,Amount of traffic,Closeness to parks,Size of yard,Size of home,Quality of heat/AC system,Noise pollution,Reputation of closest school,Quality of kitchen","2015,A Little,30 min away,100 square feet,1100 square feet,Good,Moderate,Very Good,Moderate","1962,A Lot,10 min away,550 square feet,1400 square feet,Bad,Very High,Bad,Very Good",0,0,9128,2022-06-16 21:27:52,86307
5c9e829c7c5bfd00177fe952,ma_choice_v4_observers_pilot1,5c9e829c7c5bfd00177fe952,69,0,-1,-1,"Reputation of closest school,Quality of kitchen,Size of home,Noise pollution,Closeness to parks,Quality of heat/AC system,Size of yard,Amount of traffic,Year building was built","Very Good,Bad,900 square feet,Low,30 min away,Very Bad,500 square feet,Very Little,2002","Very Bad,Good,1700 square feet,High,20 min away,Moderate,250 square feet,A Moderate Amount,1961",1,1,8269,2022-06-16 21:28:01,86352
5c9e829c7c5bfd00177fe952,ma_choice_v4_observers_pilot1,5c9e829c7c5bfd00177fe952,70,0,-1,-1,"Quality of heat/AC system,Amount of traffic,Year building was built,Size of home,Quality of kitchen,Closeness to parks,Size of yard,Noise pollution,Reputation of closest school","Very Good,A Little,1972,900 square feet,Bad,30 min away,500 square feet,High,Good","Moderate,A Lot,1951,1200 square feet,Good,10 min away,300 square feet,Low,Very Bad",1,1,8155,2022-06-16 21:28:11,86397
6074bfb81bc1c8cc50879ce4,ma_choice_v4_observers_pilot1,6074bfb81bc1c8cc50879ce4,9,1,-1,-1,"Amount of traffic,Quality of heat/AC system,Closeness to parks,Reputation of closest school,Size of yard,Year building was built,Quality of kitchen,Noise pollution,Size of home","Very Little,Bad,30 min away,Very Good,300 square feet,2009,Very Good,Low,1600 square feet","A Lot,Good,15 min away,Moderate,150 square feet,1950,Moderate,Very High,1400 square feet",0,0,46242,2022-06-16 21:28:13,86406
5c9e829c7c5bfd00177fe952,ma_choice_v4_observers_pilot1,5c9e829c7c5bfd00177fe952,71,0,-1,-1,"Quality of kitchen,Year building was built,Amount of traffic,Noise pollution,Quality of heat/AC system,Reputation of closest school,Size of yard,Size of home,Closeness to parks","Moderate,1982,Very Little,Moderate,Very Good,Very Good,100 square feet,700 square feet,30 min away","Very Bad,2005,A Moderate Amount,Very High,Bad,Very Bad,500 square feet,1500 square feet,10 min away",1,1,8793,2022-06-16 21:28:20,86443
5c9e829c7c5bfd00177fe952,ma_choice_v4_observers_pilot1,5c9e829c7c5bfd00177fe952,72,0,-1,-1,"Size of yard,Closeness to parks,Quality of kitchen,Noise pollution,Year building was built,Quality of heat/AC system,Size of home,Reputation of closest school,Amount of traffic","450 square feet,30 min away,Moderate,High,1986,Very Bad,1800 square feet,Bad,A Lot","150 square feet,20 min away,Very Good,Very Low,1961,Good,600 square feet,Good,Very Little",0,0,9831,2022-06-16 21:28:31,86490
5c9e829c7c5bfd00177fe952,ma_choice_v4_observers_pilot1,5c9e829c7c5bfd00177fe952,73,0,-1,-1,"Size of yard,Amount of traffic,Closeness to parks,Quality of kitchen,Quality of heat/AC system,Size of home,Noise pollution,Year building was built,Reputation of closest school","400 square feet,A Little,15 min away,Moderate,Very Bad,1800 square feet,Very High,1965,Moderate","50 square feet,A Lot,30 min away,Very Good,Very Good,600 square feet,Very Low,1986,Very Good",0,0,8160,2022-06-16 21:28:40,86534
5c9e829c7c5bfd00177fe952,ma_choice_v4_observers_pilot1,5c9e829c7c5bfd00177fe952,74,0,-1,-1,"Quality of heat/AC system,Quality of kitchen,Amount of traffic,Size of home,Size of yard,Reputation of closest school,Noise pollution,Year building was built,Closeness to parks","Bad,Very Good,A Moderate Amount,1800 square feet,500 square feet,Very Bad,High,1986,10 min away","Very Good,Very Bad,Very Little,800 square feet,100 square feet,Good,Low,1950,25 min away",0,0,8331,2022-06-16 21:28:50,86575
5c9e829c7c5bfd00177fe952,ma_choice_v4_observers_pilot1,5c9e829c7c5bfd00177fe952,75,0,-1,-1,"Amount of traffic,Year building was built,Quality of kitchen,Size of home,Reputation of closest school,Size of yard,Noise pollution,Closeness to parks,Quality of heat/AC system","A Little,2019,Very Bad,1300 square feet,Very Bad,450 square feet,Low,20 min away,Bad","A Lot,1981,Very Good,900 square feet,Good,50 square feet,High,30 min away,Good",0,0,37265,2022-06-16 21:29:28,86740
5c9e829c7c5bfd00177fe952,ma_choice_v4_observers_pilot1,5c9e829c7c5bfd00177fe952,76,0,-1,-1,"Quality of kitchen,Size of home,Amount of traffic,Noise pollution,Closeness to parks,Year building was built,Quality of heat/AC system,Reputation of closest school,Size of yard","Very Good,1000 square feet,A Lot,High,10 min away,1958,Bad,Bad,450 square feet","Moderate,1300 square feet,Very Little,Low,30 min away,1978,Very Good,Good,200 square feet",1,1,8630,2022-06-16 21:29:38,86789
5c9e829c7c5bfd00177fe952,ma_choice_v4_observers_pilot1,5c9e829c7c5bfd00177fe952,77,0,-1,-1,"Size of home,Year building was built,Closeness to parks,Amount of traffic,Size of yard,Quality of kitchen,Quality of heat/AC system,Reputation of closest school,Noise pollution","1400 square feet,2014,25 min away,Very Little,450 square feet,Very Good,Bad,Moderate,Very High","1800 square feet,1989,10 min away,A Lot,200 square feet,Moderate,Good,Very Good,Low",1,1,20108,2022-06-16 21:29:59,86878
5c9e829c7c5bfd00177fe952,ma_choice_v4_observers_pilot1,5c9e829c7c5bfd00177fe952,78,0,-1,-1,"Size of home,Reputation of closest school,Year building was built,Noise pollution,Size of yard,Quality of kitchen,Closeness to parks,Quality of heat/AC system,Amount of traffic","1600 square feet,Very Good,1956,Very High,50 square feet,Very Good,10 min away,Bad,Very Little","1000 square feet,Bad,1992,Very Low,350 square feet,Very Bad,25 min away,Good,A Lot",1,1,11445,2022-06-16 21:30:11,86928
5c9e829c7c5bfd00177fe952,ma_choice_v4_observers_pilot1,5c9e829c7c5bfd00177fe952,79,0,-1,-1,"Size of yard,Noise pollution,Year building was built,Quality of heat/AC system,Amount of traffic,Reputation of closest school,Size of home,Closeness to parks,Quality of kitchen","250 square feet,Low,1953,Very Bad,A Little,Good,1000 square feet,10 min away,Good","400 square feet,Very High,1993,Good,A Lot,Very Bad,700 square feet,25 min away,Very Bad",1,1,11840,2022-06-16 21:30:24,86983
6074bfb81bc1c8cc50879ce4,ma_choice_v4_observers_pilot1,6074bfb81bc1c8cc50879ce4,0,0,-1,-1,"Amount of traffic,Size of home,Quality of heat/AC system,Closeness to parks,Noise pollution,Quality of kitchen,Year building was built,Size of yard,Reputation of closest school","A Lot,1300 square feet,Bad,25 min away,High,Moderate,1953,50 square feet,Bad","A Little,900 square feet,Very Good,15 min away,Low,Very Bad,1984,550 square feet,Very Good",1,1,45058,2022-06-16 21:30:30,87008
6074bfb81bc1c8cc50879ce4,ma_choice_v4_observers_pilot1,6074bfb81bc1c8cc50879ce4,1,0,-1,-1,"Year building was built,Closeness to parks,Amount of traffic,Size of yard,Size of home,Quality of heat/AC system,Reputation of closest school,Quality of kitchen,Noise pollution","1958,25 min away,A Lot,50 square feet,1700 square feet,Very Good,Good,Moderate,Very High","1995,10 min away,Very Little,200 square feet,1500 square feet,Bad,Bad,Very Bad,Moderate",0,0,31603,2022-06-16 21:31:02,87141
6074bfb81bc1c8cc50879ce4,ma_choice_v4_observers_pilot1,6074bfb81bc1c8cc50879ce4,2,0,-1,-1,"Amount of traffic,Quality of kitchen,Reputation of closest school,Quality of heat/AC system,Closeness to parks,Size of yard,Year building was built,Size of home,Noise pollution","A Little,Very Good,Moderate,Very Bad,30 min away,600 square feet,1987,600 square feet,Very Low","A Lot,Moderate,Very Bad,Good,15 min away,350 square feet,2019,800 square feet,Moderate",0,0,28957,2022-06-16 21:31:32,87265
6074bfb81bc1c8cc50879ce4,ma_choice_v4_observers_pilot1,6074bfb81bc1c8cc50879ce4,3,0,-1,-1,"Size of yard,Quality of heat/AC system,Amount of traffic,Quality of kitchen,Size of home,Closeness to parks,Noise pollution,Year building was built,Reputation of closest school","300 square feet,Moderate,A Lot,Moderate,1600 square feet,25 min away,Very High,2010,Bad","100 square feet,Very Bad,A Little,Very Bad,1000 square feet,10 min away,Moderate,1990,Very Good",0,0,18961,2022-06-16 21:31:52,87342
5c9e829c7c5bfd00177fe952,ma_choice_v4_observers_pilot1,5c9e829c7c5bfd00177fe952,80,0,-1,-1,"Size of yard,Size of home,Amount of traffic,Noise pollution,Closeness to parks,Quality of heat/AC system,Quality of kitchen,Reputation of closest school,Year building was built","50 square feet,1400 square feet,A Little,Low,25 min away,Very Bad,Very Bad,Moderate,1969","250 square feet,600 square feet,A Lot,Very High,15 min away,Moderate,Moderate,Very Bad,1990",0,0,92105,2022-06-16 21:31:57,87360
5c9e829c7c5bfd00177fe952,ma_choice_v4_observers_pilot1,5c9e829c7c5bfd00177fe952,81,0,-1,-1,"Year building was built,Amount of traffic,Quality of kitchen,Closeness to parks,Size of home,Reputation of closest school,Noise pollution,Quality of heat/AC system,Size of yard","1973,Very Little,Good,15 min away,800 square feet,Good,Very High,Bad,50 square feet","2005,A Moderate Amount,Very Bad,30 min away,600 square feet,Bad,Moderate,Good,550 square feet",1,1,8231,2022-06-16 21:32:06,87400
5c9e829c7c5bfd00177fe952,ma_choice_v4_observers_pilot1,5c9e829c7c5bfd00177fe952,82,0,-1,-1,"Size of home,Amount of traffic,Quality of heat/AC system,Reputation of closest school,Closeness to parks,Year building was built,Noise pollution,Quality of kitchen,Size of yard","1100 square feet,A Moderate Amount,Bad,Good,15 min away,1959,Low,Good,150 square feet","1400 square feet,Very Little,Very Good,Very Bad,25 min away,2006,High,Bad,450 square feet",1,1,7832,2022-06-16 21:32:15,87436
5c9e829c7c5bfd00177fe952,ma_choice_v4_observers_pilot1,5c9e829c7c5bfd00177fe952,83,0,-1,-1,"Size of yard,Amount of traffic,Reputation of closest school,Quality of heat/AC system,Quality of kitchen,Closeness to parks,Size of home,Noise pollution,Year building was built","400 square feet,A Lot,Very Bad,Moderate,Good,20 min away,1700 square feet,Moderate,1992","200 square feet,A Little,Moderate,Very Bad,Very Bad,10 min away,1200 square feet,Very High,1950",0,0,8135,2022-06-16 21:32:24,87471
6074bfb81bc1c8cc50879ce4,ma_choice_v4_observers_pilot1,6074bfb81bc1c8cc50879ce4,4,0,-1,-1,"Size of yard,Noise pollution,Reputation of closest school,Size of home,Year building was built,Closeness to parks,Quality of kitchen,Amount of traffic,Quality of heat/AC system","50 square feet,Very Low,Very Bad,1000 square feet,2011,25 min away,Good,Very Little,Bad","550 square feet,Moderate,Very Good,1600 square feet,1978,15 min away,Bad,A Moderate Amount,Very Good",1,1,34697,2022-06-16 21:32:28,87485
5c9e829c7c5bfd00177fe952,ma_choice_v4_observers_pilot1,5c9e829c7c5bfd00177fe952,84,0,-1,-1,"Quality of heat/AC system,Reputation of closest school,Closeness to parks,Noise pollution,Amount of traffic,Size of yard,Size of home,Year building was built,Quality of kitchen","Very Bad,Good,10 min away,Very High,A Little,200 square feet,900 square feet,1953,Very Good","Moderate,Bad,20 min away,Moderate,A Lot,400 square feet,1500 square feet,1997,Bad",1,1,8229,2022-06-16 21:32:34,87514
5c9e829c7c5bfd00177fe952,ma_choice_v4_observers_pilot1,5c9e829c7c5bfd00177fe952,85,0,-1,-1,"Size of home,Reputation of closest school,Quality of heat/AC system,Closeness to parks,Year building was built,Amount of traffic,Size of yard,Quality of kitchen,Noise pollution","1600 square feet,Moderate,Very Good,20 min away,2013,Very Little,500 square feet,Bad,High","1300 square feet,Very Good,Bad,10 min away,1954,A Moderate Amount,350 square feet,Very Good,Low",0,0,8605,2022-06-16 21:32:43,87545
5c9e829c7c5bfd00177fe952,ma_choice_v4_observers_pilot1,5c9e829c7c5bfd00177fe952,86,0,-1,-1,"Size of home,Quality of heat/AC system,Year building was built,Amount of traffic,Reputation of closest school,Size of yard,Closeness to parks,Quality of kitchen,Noise pollution","900 square feet,Very Good,1984,A Little,Very Good,550 square feet,15 min away,Very Bad,Low","1300 square feet,Bad,1953,A Lot,Bad,50 square feet,25 min away,Moderate,High",1,1,8070,2022-06-16 21:32:52,87583
6074bfb81bc1c8cc50879ce4,ma_choice_v4_observers_pilot1,6074bfb81bc1c8cc50879ce4,5,0,-1,-1,"Reputation of closest school,Year building was built,Amount of traffic,Size of home,Closeness to parks,Noise pollution,Quality of heat/AC system,Size of yard,Quality of kitchen","Very Bad,1986,A Moderate Amount,1800 square feet,10 min away,High,Bad,500 square feet,Very Good","Good,1950,Very Little,800 square feet,25 min away,Low,Very Good,100 square feet,Very Bad",1,1,29015,2022-06-16 21:32:58,87605
5c9e829c7c5bfd00177fe952,ma_choice_v4_observers_pilot1,5c9e829c7c5bfd00177fe952,87,0,-1,-1,"Noise pollution,Quality of heat/AC system,Amount of traffic,Size of yard,Year building was built,Reputation of closest school,Closeness to parks,Size of home,Quality of kitchen","Moderate,Very Good,A Little,200 square feet,1970,Moderate,25 min away,1000 square feet,Good","Very High,Bad,A Lot,400 square feet,1950,Very Bad,15 min away,1700 square feet,Bad",1,1,8161,2022-06-16 21:33:01,87622
5c9e829c7c5bfd00177fe952,ma_choice_v4_observers_pilot1,5c9e829c7c5bfd00177fe952,88,0,-1,-1,"Size of yard,Noise pollution,Amount of traffic,Year building was built,Quality of heat/AC system,Quality of kitchen,Reputation of closest school,Size of home,Closeness to parks","350 square feet,High,A Little,1987,Very Bad,Very Bad,Bad,900 square feet,25 min away","50 square feet,Low,A Lot,1952,Very Good,Very Good,Very Good,1800 square feet,10 min away",1,1,11212,2022-06-16 21:33:14,87674
5c9e829c7c5bfd00177fe952,ma_choice_v4_observers_pilot1,5c9e829c7c5bfd00177fe952,89,0,-1,-1,"Size of yard,Amount of traffic,Noise pollution,Closeness to parks,Quality of heat/AC system,Year building was built,Reputation of closest school,Quality of kitchen,Size of home","0 square feet,A Moderate Amount,Very Low,20 min away,Very Good,1980,Bad,Good,1500 square feet","250 square feet,Very Little,Very High,10 min away,Moderate,1954,Good,Bad,1200 square feet",0,0,8731,2022-06-16 21:33:23,87708
5c9e829c7c5bfd00177fe952,ma_choice_v4_observers_pilot1,5c9e829c7c5bfd00177fe952,90,0,-1,-1,"Size of yard,Amount of traffic,Quality of heat/AC system,Year building was built,Size of home,Noise pollution,Quality of kitchen,Reputation of closest school,Closeness to parks","200 square feet,A Little,Bad,2013,1500 square feet,Very High,Very Bad,Bad,10 min away","450 square feet,A Lot,Good,1984,700 square feet,Very Low,Moderate,Very Good,20 min away",0,0,7656,2022-06-16 21:33:32,87741
6074bfb81bc1c8cc50879ce4,ma_choice_v4_observers_pilot1,6074bfb81bc1c8cc50879ce4,6,0,-1,-1,"Closeness to parks,Year building was built,Size of yard,Noise pollution,Reputation of closest school,Quality of heat/AC system,Amount of traffic,Size of home,Quality of kitchen","20 min away,1957,300 square feet,Very Low,Moderate,Bad,A Lot,1300 square feet,Very Good","30 min away,1993,100 square feet,Very High,Very Bad,Good,Very Little,1500 square feet,Bad",0,0,42178,2022-06-16 21:33:41,87777
5c9e829c7c5bfd00177fe952,ma_choice_v4_observers_pilot1,5c9e829c7c5bfd00177fe952,91,0,-1,-1,"Noise pollution,Size of home,Year building was built,Reputation of closest school,Quality of heat/AC system,Closeness to parks,Quality of kitchen,Size of yard,Amount of traffic","Low,900 square feet,1988,Very Bad,Bad,10 min away,Moderate,300 square feet,A Little","High,1700 square feet,1950,Moderate,Very Good,25 min away,Very Bad,100 square feet,A Lot",1,1,8185,2022-06-16 21:33:41,87780
5c9e829c7c5bfd00177fe952,ma_choice_v4_observers_pilot1,5c9e829c7c5bfd00177fe952,92,0,-1,-1,"Amount of traffic,Quality of heat/AC system,Size of home,Size of yard,Reputation of closest school,Year building was built,Closeness to parks,Quality of kitchen,Noise pollution","A Little,Moderate,700 square feet,200 square feet,Bad,1963,15 min away,Very Good,High","A Lot,Very Bad,1000 square feet,450 square feet,Good,1983,25 min away,Bad,Very Low",1,1,8055,2022-06-16 21:33:50,87812
5c9e829c7c5bfd00177fe952,ma_choice_v4_observers_pilot1,5c9e829c7c5bfd00177fe952,93,0,-1,-1,"Size of yard,Year building was built,Size of home,Quality of heat/AC system,Reputation of closest school,Closeness to parks,Noise pollution,Amount of traffic,Quality of kitchen","250 square feet,1957,700 square feet,Very Good,Very Good,25 min away,High,A Little,Very Good","450 square feet,1981,1700 square feet,Moderate,Bad,10 min away,Low,A Lot,Bad",1,1,7792,2022-06-16 21:33:59,87850
60fec1773a586a6acacdd193,ma_choice_v4_observers_pilot1,60fec1773a586a6acacdd193,0,1,-1,-1,"Quality of kitchen,Size of home,Quality of heat/AC system,Year building was built,Amount of traffic,Closeness to parks,Size of yard,Reputation of closest school,Noise pollution","Very Good,1600 square feet,Bad,2009,Very Little,30 min away,300 square feet,Very Good,Low","Moderate,1400 square feet,Good,1950,A Lot,15 min away,150 square feet,Moderate,Very High",1,1,20321,2022-06-16 21:34:06,87875
5c9e829c7c5bfd00177fe952,ma_choice_v4_observers_pilot1,5c9e829c7c5bfd00177fe952,94,0,-1,-1,"Closeness to parks,Size of yard,Quality of heat/AC system,Amount of traffic,Quality of kitchen,Year building was built,Reputation of closest school,Size of home,Noise pollution","10 min away,100 square feet,Bad,Very Little,Very Good,1969,Bad,1100 square feet,Very Low","30 min away,300 square feet,Good,A Moderate Amount,Moderate,2002,Good,700 square feet,Moderate",0,0,8311,2022-06-16 21:34:08,87885
6074bfb81bc1c8cc50879ce4,ma_choice_v4_observers_pilot1,6074bfb81bc1c8cc50879ce4,7,0,-1,-1,"Amount of traffic,Closeness to parks,Quality of kitchen,Reputation of closest school,Quality of heat/AC system,Size of yard,Year building was built,Size of home,Noise pollution","Very Little,15 min away,Good,Very Bad,Bad,600 square feet,1984,1500 square feet,Low","A Moderate Amount,30 min away,Bad,Good,Very Good,350 square feet,2007,1100 square feet,Very High",0,0,28723,2022-06-16 21:34:11,87892
5c9e829c7c5bfd00177fe952,ma_choice_v4_observers_pilot1,5c9e829c7c5bfd00177fe952,95,0,-1,-1,"Size of yard,Size of home,Reputation of closest school,Quality of kitchen,Amount of traffic,Closeness to parks,Noise pollution,Year building was built,Quality of heat/AC system","550 square feet,700 square feet,Moderate,Bad,A Moderate Amount,30 min away,Very High,1959,Very Bad","350 square feet,1100 square feet,Very Good,Good,Very Little,10 min away,Low,2010,Moderate",1,1,7777,2022-06-16 21:34:17,87929
60fec1773a586a6acacdd193,ma_choice_v4_observers_pilot1,60fec1773a586a6acacdd193,1,1,-1,-1,"Reputation of closest school,Quality of kitchen,Amount of traffic,Noise pollution,Size of home,Year building was built,Closeness to parks,Quality of heat/AC system,Size of yard","Very Bad,Very Bad,A Little,Very High,1000 square feet,1972,10 min away,Very Good,350 square feet","Moderate,Good,A Lot,Low,1300 square feet,2016,25 min away,Moderate,150 square feet",0,0,17232,2022-06-16 21:34:24,87956
5c9e829c7c5bfd00177fe952,ma_choice_v4_observers_pilot1,5c9e829c7c5bfd00177fe952,96,0,-1,-1,"Quality of heat/AC system,Amount of traffic,Quality of kitchen,Size of home,Closeness to parks,Noise pollution,Reputation of closest school,Size of yard,Year building was built","Moderate,A Lot,Good,1700 square feet,20 min away,Very High,Bad,0 square feet,1987","Very Bad,A Little,Very Bad,1200 square feet,10 min away,Very Low,Good,400 square feet,1959",0,0,8464,2022-06-16 21:34:27,87965
60fec1773a586a6acacdd193,ma_choice_v4_observers_pilot1,60fec1773a586a6acacdd193,2,1,-1,-1,"Quality of heat/AC system,Size of yard,Amount of traffic,Reputation of closest school,Noise pollution,Size of home,Closeness to parks,Quality of kitchen,Year building was built","Bad,300 square feet,Very Little,Very Bad,High,1400 square feet,10 min away,Bad,2008","Good,600 square feet,A Lot,Good,Low,1100 square feet,30 min away,Good,1971",0,0,8899,2022-06-16 21:34:34,87994
5c9e829c7c5bfd00177fe952,ma_choice_v4_observers_pilot1,5c9e829c7c5bfd00177fe952,97,0,-1,-1,"Year building was built,Noise pollution,Closeness to parks,Size of home,Quality of kitchen,Reputation of closest school,Size of yard,Quality of heat/AC system,Amount of traffic","1957,High,10 min away,1100 square feet,Very Good,Very Good,50 square feet,Very Bad,A Lot","2014,Low,30 min away,1400 square feet,Bad,Moderate,450 square feet,Good,A Little",1,1,11569,2022-06-16 21:34:39,88020
60fec1773a586a6acacdd193,ma_choice_v4_observers_pilot1,60fec1773a586a6acacdd193,3,1,-1,-1,"Amount of traffic,Noise pollution,Year building was built,Quality of heat/AC system,Quality of kitchen,Size of home,Size of yard,Closeness to parks,Reputation of closest school","A Little,High,1993,Moderate,Very Good,1700 square feet,100 square feet,20 min away,Very Good","A Lot,Low,1953,Very Good,Bad,800 square feet,250 square feet,30 min away,Moderate",0,0,9238,2022-06-16 21:34:44,88039
60fec1773a586a6acacdd193,ma_choice_v4_observers_pilot1,60fec1773a586a6acacdd193,4,1,-1,-1,"Size of yard,Quality of heat/AC system,Amount of traffic,Reputation of closest school,Noise pollution,Closeness to parks,Size of home,Year building was built,Quality of kitchen","350 square feet,Very Good,A Lot,Good,High,10 min away,700 square feet,2013,Very Bad","100 square feet,Very Bad,A Little,Very Bad,Very Low,30 min away,1200 square feet,1974,Moderate",0,0,8286,2022-06-16 21:34:53,88079
6074bfb81bc1c8cc50879ce4,ma_choice_v4_observers_pilot1,6074bfb81bc1c8cc50879ce4,8,0,-1,-1,"Size of yard,Noise pollution,Amount of traffic,Year building was built,Quality of heat/AC system,Closeness to parks,Reputation of closest school,Size of home,Quality of kitchen","150 square feet,Low,A Moderate Amount,1956,Moderate,10 min away,Very Bad,1600 square feet,Very Bad","600 square feet,Very High,Very Little,1990,Very Bad,25 min away,Good,1100 square feet,Moderate",0,0,43068,2022-06-16 21:34:55,88082
5c9e829c7c5bfd00177fe952,ma_choice_v4_observers_pilot1,5c9e829c7c5bfd00177fe952,98,0,-1,-1,"Quality of kitchen,Noise pollution,Size of home,Amount of traffic,Reputation of closest school,Size of yard,Quality of heat/AC system,Year building was built,Closeness to parks","Good,High,1100 square feet,A Little,Bad,300 square feet,Moderate,1964,20 min away","Bad,Very Low,800 square feet,A Lot,Very Good,50 square feet,Very Bad,2018,10 min away",0,0,15564,2022-06-16 21:34:56,88089
60fec1773a586a6acacdd193,ma_choice_v4_observers_pilot1,60fec1773a586a6acacdd193,5,1,-1,-1,"Reputation of closest school,Noise pollution,Closeness to parks,Size of home,Quality of kitchen,Year building was built,Amount of traffic,Size of yard,Quality of heat/AC system","Very Bad,Moderate,15 min away,1100 square feet,Very Bad,2006,A Lot,300 square feet,Moderate","Moderate,Very Low,25 min away,1500 square feet,Very Good,1955,Very Little,500 square feet,Very Good",0,0,8727,2022-06-16 21:35:03,88119
5c9e829c7c5bfd00177fe952,ma_choice_v4_observers_pilot1,5c9e829c7c5bfd00177fe952,99,0,-1,-1,"Size of yard,Closeness to parks,Amount of traffic,Quality of heat/AC system,Noise pollution,Size of home,Reputation of closest school,Year building was built,Quality of kitchen","100 square feet,30 min away,A Lot,Good,Very High,600 square feet,Bad,1997,Good","250 square feet,15 min away,A Little,Very Bad,Very Low,900 square feet,Good,2017,Very Bad",0,0,8636,2022-06-16 21:35:06,88130
60fec1773a586a6acacdd193,ma_choice_v4_observers_pilot1,60fec1773a586a6acacdd193,6,1,-1,-1,"Year building was built,Quality of heat/AC system,Reputation of closest school,Size of home,Noise pollution,Amount of traffic,Closeness to parks,Size of yard,Quality of kitchen","2020,Good,Very Bad,1500 square feet,Very High,A Little,30 min away,200 square feet,Very Bad","1974,Very Bad,Good,1100 square feet,Very Low,A Lot,20 min away,450 square feet,Moderate",0,0,9004,2022-06-16 21:35:13,88165
60fec1773a586a6acacdd193,ma_choice_v4_observers_pilot1,60fec1773a586a6acacdd193,7,1,-1,-1,"Size of home,Noise pollution,Reputation of closest school,Size of yard,Year building was built,Quality of heat/AC system,Quality of kitchen,Closeness to parks,Amount of traffic","1300 square feet,High,Bad,50 square feet,2012,Very Bad,Bad,15 min away,Very Little","1100 square feet,Very Low,Good,400 square feet,1973,Very Good,Good,25 min away,A Moderate Amount",1,1,8582,2022-06-16 21:35:23,88201
6074bfb81bc1c8cc50879ce4,ma_choice_v4_observers_pilot1,6074bfb81bc1c8cc50879ce4,9,0,-1,-1,"Quality of heat/AC system,Noise pollution,Reputation of closest school,Amount of traffic,Quality of kitchen,Size of home,Year building was built,Size of yard,Closeness to parks","Bad,Low,Very Bad,A Little,Bad,700 square feet,2010,150 square feet,25 min away","Good,Very High,Good,A Lot,Very Good,1500 square feet,1986,400 square feet,15 min away",1,1,29944,2022-06-16 21:35:26,88216
60fec1773a586a6acacdd193,ma_choice_v4_observers_pilot1,60fec1773a586a6acacdd193,8,1,-1,-1,"Closeness to parks,Quality of heat/AC system,Quality of kitchen,Size of home,Amount of traffic,Noise pollution,Reputation of closest school,Year building was built,Size of yard","20 min away,Very Good,Very Bad,600 square feet,A Lot,Very High,Good,1950,500 square feet","10 min away,Moderate,Good,900 square feet,Very Little,Very Low,Very Bad,1995,350 square feet",1,1,7926,2022-06-16 21:35:32,88239
60fec1773a586a6acacdd193,ma_choice_v4_observers_pilot1,60fec1773a586a6acacdd193,9,1,-1,-1,"Closeness to parks,Quality of kitchen,Quality of heat/AC system,Amount of traffic,Size of home,Reputation of closest school,Noise pollution,Year building was built,Size of yard","30 min away,Moderate,Very Bad,A Lot,1400 square feet,Very Good,Moderate,1970,150 square feet","20 min away,Very Bad,Moderate,Very Little,1800 square feet,Moderate,Very Low,2005,450 square feet",1,1,8434,2022-06-16 21:35:41,88277
6074bfb81bc1c8cc50879ce4,ma_choice_v4_observers_pilot1,6074bfb81bc1c8cc50879ce4,10,0,-1,-1,"Year building was built,Reputation of closest school,Closeness to parks,Size of yard,Quality of kitchen,Noise pollution,Quality of heat/AC system,Size of home,Amount of traffic","1984,Very Good,20 min away,450 square feet,Moderate,Very Low,Good,700 square feet,A Lot","2013,Bad,10 min away,200 square feet,Very Bad,Very High,Bad,1500 square feet,A Little",1,1,28745,2022-06-16 21:35:55,88349
6074bfb81bc1c8cc50879ce4,ma_choice_v4_observers_pilot1,6074bfb81bc1c8cc50879ce4,11,0,-1,-1,"Size of home,Closeness to parks,Size of yard,Noise pollution,Amount of traffic,Quality of kitchen,Year building was built,Reputation of closest school,Quality of heat/AC system","1200 square feet,10 min away,50 square feet,High,A Lot,Very Bad,1965,Moderate,Good","900 square feet,25 min away,300 square feet,Low,Very Little,Good,2001,Very Good,Very Bad",1,1,32271,2022-06-16 21:36:29,88478
60fec1773a586a6acacdd193,ma_choice_v4_observers_pilot1,60fec1773a586a6acacdd193,0,0,-1,-1,"Quality of heat/AC system,Size of yard,Closeness to parks,Reputation of closest school,Amount of traffic,Size of home,Year building was built,Noise pollution,Quality of kitchen","Very Good,400 square feet,20 min away,Good,A Lot,1400 square feet,2010,High,Bad","Moderate,250 square feet,10 min away,Bad,A Little,700 square feet,1985,Very Low,Good",1,1,31701,2022-06-16 21:36:39,88515
6074bfb81bc1c8cc50879ce4,ma_choice_v4_observers_pilot1,6074bfb81bc1c8cc50879ce4,12,0,-1,-1,"Quality of kitchen,Size of home,Size of yard,Closeness to parks,Year building was built,Noise pollution,Amount of traffic,Quality of heat/AC system,Reputation of closest school","Very Bad,1200 square feet,250 square feet,25 min away,1977,Low,A Little,Very Bad,Very Good","Very Good,1700 square feet,0 square feet,15 min away,2007,Very High,A Lot,Good,Bad",1,1,33886,2022-06-16 21:37:04,88613
60fec1773a586a6acacdd193,ma_choice_v4_observers_pilot1,60fec1773a586a6acacdd193,1,0,-1,-1,"Closeness to parks,Noise pollution,Quality of kitchen,Size of home,Amount of traffic,Reputation of closest school,Year building was built,Quality of heat/AC system,Size of yard","10 min away,Low,Good,1200 square feet,A Lot,Very Bad,1951,Moderate,300 square feet","30 min away,High,Bad,900 square feet,A Little,Good,1972,Very Good,500 square feet",0,0,25024,2022-06-16 21:37:05,88616
6297ec4dbdefde1a517c92d5,ma_choice_v4_observers_pilot1,6297ec4dbdefde1a517c92d5,0,1,-1,-1,"Amount of traffic,Noise pollution,Closeness to parks,Quality of kitchen,Size of yard,Quality of heat/AC system,Size of home,Year building was built,Reputation of closest school","A Moderate Amount,Very Low,25 min away,Good,400 square feet,Very Good,1100 square feet,1973,Good","Very Little,High,15 min away,Bad,50 square feet,Very Bad,1300 square feet,2012,Bad",0,0,42757,2022-06-16 21:37:08,88629
628e55a8f9ad59c287bc542d,ma_choice_v4_observers_pilot1,628e55a8f9ad59c287bc542d,0,1,-1,-1,"Size of yard,Size of home,Quality of kitchen,Closeness to parks,Noise pollution,Year building was built,Quality of heat/AC system,Reputation of closest school,Amount of traffic","400 square feet,1100 square feet,Good,25 min away,Very Low,1973,Very Good,Good,A Moderate Amount","50 square feet,1300 square feet,Bad,15 min away,High,2012,Very Bad,Bad,Very Little",0,0,60944,2022-06-16 21:37:25,88699
60fec1773a586a6acacdd193,ma_choice_v4_observers_pilot1,60fec1773a586a6acacdd193,2,0,-1,-1,"Size of home,Quality of heat/AC system,Amount of traffic,Noise pollution,Year building was built,Reputation of closest school,Quality of kitchen,Closeness to parks,Size of yard","1500 square feet,Good,A Lot,Very High,1974,Very Good,Very Bad,25 min away,150 square feet","1100 square feet,Very Bad,A Little,Moderate,2016,Bad,Very Good,10 min away,400 square feet",1,1,26071,2022-06-16 21:37:32,88724
6074bfb81bc1c8cc50879ce4,ma_choice_v4_observers_pilot1,6074bfb81bc1c8cc50879ce4,13,0,-1,-1,"Size of yard,Amount of traffic,Reputation of closest school,Quality of kitchen,Noise pollution,Size of home,Closeness to parks,Year building was built,Quality of heat/AC system","600 square feet,A Moderate Amount,Bad,Bad,High,1200 square feet,20 min away,2000,Moderate","350 square feet,Very Little,Good,Very Good,Very Low,700 square feet,10 min away,1971,Very Bad",0,0,32996,2022-06-16 21:37:38,88742
6297ec4dbdefde1a517c92d5,ma_choice_v4_observers_pilot1,6297ec4dbdefde1a517c92d5,1,1,-1,-1,"Quality of kitchen,Year building was built,Size of yard,Noise pollution,Reputation of closest school,Amount of traffic,Size of home,Quality of heat/AC system,Closeness to parks","Moderate,1950,150 square feet,Very High,Moderate,A Lot,1400 square feet,Good,15 min away","Very Good,2009,300 square feet,Low,Very Good,Very Little,1600 square feet,Bad,30 min away",0,0,32221,2022-06-16 21:37:41,88757
60fec1773a586a6acacdd193,ma_choice_v4_observers_pilot1,60fec1773a586a6acacdd193,3,0,-1,-1,"Quality of heat/AC system,Size of yard,Reputation of closest school,Closeness to parks,Noise pollution,Size of home,Quality of kitchen,Year building was built,Amount of traffic","Good,350 square feet,Good,15 min away,Moderate,800 square feet,Very Bad,1975,Very Little","Bad,600 square feet,Bad,25 min away,Very High,1600 square feet,Very Good,2001,A Lot",0,0,19183,2022-06-16 21:37:52,88799
6074bfb81bc1c8cc50879ce4,ma_choice_v4_observers_pilot1,6074bfb81bc1c8cc50879ce4,14,0,-1,-1,"Reputation of closest school,Size of yard,Size of home,Year building was built,Closeness to parks,Noise pollution,Amount of traffic,Quality of heat/AC system,Quality of kitchen","Good,450 square feet,1400 square feet,2008,20 min away,Very High,A Moderate Amount,Good,Moderate","Bad,100 square feet,1000 square feet,1954,10 min away,Very Low,Very Little,Bad,Very Bad",0,0,24933,2022-06-16 21:38:04,88836
60fec1773a586a6acacdd193,ma_choice_v4_observers_pilot1,60fec1773a586a6acacdd193,4,0,-1,-1,"Reputation of closest school,Quality of heat/AC system,Noise pollution,Year building was built,Size of yard,Amount of traffic,Size of home,Closeness to parks,Quality of kitchen","Very Good,Bad,High,1974,550 square feet,A Moderate Amount,1500 square feet,20 min away,Very Bad","Moderate,Very Good,Very Low,2016,200 square feet,Very Little,700 square feet,10 min away,Good",1,1,15393,2022-06-16 21:38:09,88859
60fec1773a586a6acacdd193,ma_choice_v4_observers_pilot1,60fec1773a586a6acacdd193,5,0,-1,-1,"Closeness to parks,Size of yard,Quality of kitchen,Noise pollution,Reputation of closest school,Amount of traffic,Quality of heat/AC system,Year building was built,Size of home","25 min away,250 square feet,Very Good,High,Very Good,A Little,Very Good,1957,700 square feet","10 min away,450 square feet,Bad,Low,Bad,A Lot,Moderate,1981,1700 square feet",1,1,15615,2022-06-16 21:38:25,88918
6074bfb81bc1c8cc50879ce4,ma_choice_v4_observers_pilot1,6074bfb81bc1c8cc50879ce4,15,0,-1,-1,"Reputation of closest school,Noise pollution,Quality of kitchen,Amount of traffic,Size of home,Year building was built,Quality of heat/AC system,Size of yard,Closeness to parks","Good,High,Very Good,A Lot,900 square feet,1981,Good,50 square feet,30 min away","Very Bad,Low,Very Bad,A Little,1300 square feet,2019,Bad,450 square feet,20 min away",1,1,21736,2022-06-16 21:38:26,88922
6297ec4dbdefde1a517c92d5,ma_choice_v4_observers_pilot1,6297ec4dbdefde1a517c92d5,2,1,-1,-1,"Noise pollution,Quality of kitchen,Amount of traffic,Closeness to parks,Size of home,Reputation of closest school,Quality of heat/AC system,Year building was built,Size of yard","Moderate,Moderate,A Lot,30 min away,1400 square feet,Very Good,Very Bad,1970,150 square feet","Very Low,Very Bad,Very Little,20 min away,1800 square feet,Moderate,Moderate,2005,450 square feet",1,1,47620,2022-06-16 21:38:29,88933
60fec1773a586a6acacdd193,ma_choice_v4_observers_pilot1,60fec1773a586a6acacdd193,6,0,-1,-1,"Quality of kitchen,Noise pollution,Year building was built,Size of yard,Quality of heat/AC system,Amount of traffic,Closeness to parks,Reputation of closest school,Size of home","Good,Low,2010,350 square feet,Moderate,Very Little,10 min away,Very Good,1100 square feet","Bad,Very High,1959,550 square feet,Very Bad,A Moderate Amount,30 min away,Moderate,700 square feet",0,0,8875,2022-06-16 21:38:35,88956
6297ec4dbdefde1a517c92d5,ma_choice_v4_observers_pilot1,6297ec4dbdefde1a517c92d5,3,1,-1,-1,"Size of yard,Closeness to parks,Year building was built,Quality of heat/AC system,Reputation of closest school,Amount of traffic,Noise pollution,Size of home,Quality of kitchen","500 square feet,20 min away,1950,Very Good,Good,A Lot,Very High,600 square feet,Very Bad","350 square feet,10 min away,1995,Moderate,Very Bad,Very Little,Very Low,900 square feet,Good",0,0,15654,2022-06-16 21:38:46,88990
60fec1773a586a6acacdd193,ma_choice_v4_observers_pilot1,60fec1773a586a6acacdd193,7,0,-1,-1,"Size of yard,Noise pollution,Quality of kitchen,Reputation of closest school,Amount of traffic,Size of home,Quality of heat/AC system,Closeness to parks,Year building was built","500 square feet,High,Very Good,Very Bad,A Lot,800 square feet,Very Bad,15 min away,1963","250 square feet,Very Low,Moderate,Good,A Little,1500 square feet,Moderate,25 min away,1997",1,1,13709,2022-06-16 21:38:50,88996
60fec1773a586a6acacdd193,ma_choice_v4_observers_pilot1,60fec1773a586a6acacdd193,8,0,-1,-1,"Quality of kitchen,Quality of heat/AC system,Amount of traffic,Size of home,Reputation of closest school,Size of yard,Noise pollution,Closeness to parks,Year building was built","Very Bad,Good,A Moderate Amount,600 square feet,Bad,550 square feet,Moderate,30 min away,2005","Good,Bad,Very Little,800 square feet,Good,50 square feet,Very High,15 min away,1973",1,1,13214,2022-06-16 21:39:04,89050
628e55a8f9ad59c287bc542d,ma_choice_v4_observers_pilot1,628e55a8f9ad59c287bc542d,1,1,-1,-1,"Reputation of closest school,Noise pollution,Size of home,Quality of kitchen,Size of yard,Year building was built,Closeness to parks,Quality of heat/AC system,Amount of traffic","Very Good,Low,1600 square feet,Very Good,300 square feet,2009,30 min away,Bad,Very Little","Moderate,Very High,1400 square feet,Moderate,150 square feet,1950,15 min away,Good,A Lot",0,0,102325,2022-06-16 21:39:08,89060
6074bfb81bc1c8cc50879ce4,ma_choice_v4_observers_pilot1,6074bfb81bc1c8cc50879ce4,16,0,-1,-1,"Amount of traffic,Noise pollution,Size of yard,Size of home,Reputation of closest school,Closeness to parks,Quality of kitchen,Year building was built,Quality of heat/AC system","A Moderate Amount,Very High,550 square feet,700 square feet,Bad,25 min away,Bad,1985,Good","Very Little,Very Low,200 square feet,1200 square feet,Very Good,15 min away,Good,2012,Very Bad",1,1,44115,2022-06-16 21:39:11,89085
60fec1773a586a6acacdd193,ma_choice_v4_observers_pilot1,60fec1773a586a6acacdd193,9,0,-1,-1,"Closeness to parks,Year building was built,Noise pollution,Size of home,Reputation of closest school,Quality of kitchen,Quality of heat/AC system,Size of yard,Amount of traffic","10 min away,1986,High,1800 square feet,Very Bad,Very Good,Bad,500 square feet,A Moderate Amount","25 min away,1950,Low,800 square feet,Good,Very Bad,Very Good,100 square feet,Very Little",0,0,8766,2022-06-16 21:39:14,89092
60fec1773a586a6acacdd193,ma_choice_v4_observers_pilot1,60fec1773a586a6acacdd193,10,0,-1,-1,"Quality of heat/AC system,Closeness to parks,Noise pollution,Size of home,Reputation of closest school,Year building was built,Size of yard,Quality of kitchen,Amount of traffic","Moderate,15 min away,Low,1000 square feet,Very Bad,1954,100 square feet,Moderate,A Little","Very Good,30 min away,High,600 square feet,Very Good,2016,450 square feet,Very Good,A Lot",0,0,8705,2022-06-16 21:39:24,89123
6297ec4dbdefde1a517c92d5,ma_choice_v4_observers_pilot1,6297ec4dbdefde1a517c92d5,4,1,-1,-1,"Size of yard,Year building was built,Closeness to parks,Amount of traffic,Reputation of closest school,Noise pollution,Quality of heat/AC system,Size of home,Quality of kitchen","350 square feet,2013,10 min away,A Lot,Good,High,Very Good,700 square feet,Very Bad","100 square feet,1974,30 min away,A Little,Very Bad,Very Low,Very Bad,1200 square feet,Moderate",1,1,46596,2022-06-16 21:39:34,89154
60fec1773a586a6acacdd193,ma_choice_v4_observers_pilot1,60fec1773a586a6acacdd193,11,0,-1,-1,"Year building was built,Size of yard,Closeness to parks,Quality of heat/AC system,Quality of kitchen,Noise pollution,Amount of traffic,Size of home,Reputation of closest school","2007,50 square feet,25 min away,Bad,Good,Moderate,A Lot,1100 square feet,Moderate","1985,550 square feet,15 min away,Good,Very Bad,Very Low,Very Little,700 square feet,Very Bad",1,1,10243,2022-06-16 21:39:35,89159
6074bfb81bc1c8cc50879ce4,ma_choice_v4_observers_pilot1,6074bfb81bc1c8cc50879ce4,17,0,-1,-1,"Quality of kitchen,Year building was built,Amount of traffic,Quality of heat/AC system,Reputation of closest school,Size of yard,Closeness to parks,Size of home,Noise pollution","Very Good,1953,A Lot,Very Good,Good,50 square feet,10 min away,1700 square feet,Low","Very Bad,1977,A Little,Very Bad,Bad,300 square feet,30 min away,1000 square feet,High",0,0,29440,2022-06-16 21:39:42,89188
60fec1773a586a6acacdd193,ma_choice_v4_observers_pilot1,60fec1773a586a6acacdd193,12,0,-1,-1,"Year building was built,Reputation of closest school,Amount of traffic,Size of home,Quality of heat/AC system,Closeness to parks,Quality of kitchen,Size of yard,Noise pollution","2006,Very Good,A Lot,1100 square feet,Very Bad,30 min away,Good,100 square feet,Low","1957,Moderate,A Little,1400 square feet,Very Good,10 min away,Very Bad,550 square feet,Very High",1,1,11409,2022-06-16 21:39:47,89206
6297ec4dbdefde1a517c92d5,ma_choice_v4_observers_pilot1,6297ec4dbdefde1a517c92d5,5,1,-1,-1,"Amount of traffic,Quality of kitchen,Year building was built,Quality of heat/AC system,Noise pollution,Size of home,Reputation of closest school,Closeness to parks,Size of yard","A Lot,Good,2016,Moderate,Low,1300 square feet,Moderate,25 min away,150 square feet","A Little,Very Bad,1972,Very Good,Very High,1000 square feet,Very Bad,10 min away,350 square feet",0,0,16350,2022-06-16 21:39:51,89219
60fec1773a586a6acacdd193,ma_choice_v4_observers_pilot1,60fec1773a586a6acacdd193,13,0,-1,-1,"Size of home,Amount of traffic,Year building was built,Closeness to parks,Reputation of closest school,Quality of heat/AC system,Quality of kitchen,Noise pollution,Size of yard","1700 square feet,A Little,1980,20 min away,Good,Very Bad,Very Good,Moderate,150 square feet","1200 square feet,A Lot,1951,10 min away,Bad,Good,Very Bad,Very Low,350 square feet",1,1,8365,2022-06-16 21:39:57,89234
60fec1773a586a6acacdd193,ma_choice_v4_observers_pilot1,60fec1773a586a6acacdd193,14,0,-1,-1,"Quality of kitchen,Reputation of closest school,Quality of heat/AC system,Size of yard,Amount of traffic,Closeness to parks,Size of home,Noise pollution,Year building was built","Very Bad,Good,Very Bad,550 square feet,A Moderate Amount,15 min away,1700 square feet,Very Low,1994","Moderate,Bad,Moderate,50 square feet,Very Little,30 min away,1200 square feet,High,2018",1,1,9997,2022-06-16 21:40:08,89277
6074bfb81bc1c8cc50879ce4,ma_choice_v4_observers_pilot1,6074bfb81bc1c8cc50879ce4,18,0,-1,-1,"Reputation of closest school,Size of home,Year building was built,Noise pollution,Size of yard,Amount of traffic,Quality of kitchen,Closeness to parks,Quality of heat/AC system","Very Good,1800 square feet,1952,Low,50 square feet,A Lot,Very Good,10 min away,Very Good","Bad,900 square feet,1987,High,350 square feet,A Little,Very Bad,25 min away,Very Bad",0,0,29824,2022-06-16 21:40:13,89292
60fec1773a586a6acacdd193,ma_choice_v4_observers_pilot1,60fec1773a586a6acacdd193,15,0,-1,-1,"Amount of traffic,Closeness to parks,Year building was built,Noise pollution,Reputation of closest school,Quality of heat/AC system,Size of yard,Size of home,Quality of kitchen","A Moderate Amount,15 min away,1959,Low,Good,Bad,150 square feet,1100 square feet,Good","Very Little,25 min away,2006,High,Very Bad,Very Good,450 square feet,1400 square feet,Bad",0,0,8626,2022-06-16 21:40:17,89305
6297ec4dbdefde1a517c92d5,ma_choice_v4_observers_pilot1,6297ec4dbdefde1a517c92d5,6,1,-1,-1,"Reputation of closest school,Size of home,Noise pollution,Size of yard,Closeness to parks,Quality of kitchen,Year building was built,Quality of heat/AC system,Amount of traffic","Very Good,1700 square feet,High,100 square feet,20 min away,Very Good,1993,Moderate,A Little","Moderate,800 square feet,Low,250 square feet,30 min away,Bad,1953,Very Good,A Lot",1,1,34981,2022-06-16 21:40:27,89341
60fec1773a586a6acacdd193,ma_choice_v4_observers_pilot1,60fec1773a586a6acacdd193,16,0,-1,-1,"Reputation of closest school,Amount of traffic,Noise pollution,Quality of heat/AC system,Quality of kitchen,Year building was built,Size of yard,Size of home,Closeness to parks","Good,A Lot,Moderate,Good,Moderate,2016,50 square feet,1700 square feet,30 min away","Very Bad,A Little,Very High,Very Bad,Very Bad,1993,500 square feet,1100 square feet,15 min away",0,0,9481,2022-06-16 21:40:28,89344
60fec1773a586a6acacdd193,ma_choice_v4_observers_pilot1,60fec1773a586a6acacdd193,17,0,-1,-1,"Quality of kitchen,Year building was built,Size of yard,Noise pollution,Reputation of closest school,Quality of heat/AC system,Closeness to parks,Amount of traffic,Size of home","Very Bad,1992,350 square feet,Very Low,Bad,Good,25 min away,A Lot,1000 square feet","Very Good,1956,50 square feet,Very High,Very Good,Bad,10 min away,Very Little,1600 square feet",1,1,7715,2022-06-16 21:40:37,89379
6074bfb81bc1c8cc50879ce4,ma_choice_v4_observers_pilot1,6074bfb81bc1c8cc50879ce4,19,0,-1,-1,"Year building was built,Closeness to parks,Amount of traffic,Reputation of closest school,Quality of kitchen,Size of home,Noise pollution,Size of yard,Quality of heat/AC system","1959,30 min away,A Moderate Amount,Moderate,Bad,700 square feet,Very High,550 square feet,Very Bad","2010,10 min away,Very Little,Very Good,Good,1100 square feet,Low,350 square feet,Moderate",1,1,28239,2022-06-16 21:40:42,89397
628e55a8f9ad59c287bc542d,ma_choice_v4_observers_pilot1,628e55a8f9ad59c287bc542d,2,1,-1,-1,"Size of yard,Quality of heat/AC system,Year building was built,Reputation of closest school,Quality of kitchen,Noise pollution,Amount of traffic,Closeness to parks,Size of home","100 square feet,Very Bad,1974,Very Bad,Moderate,Very Low,A Little,30 min away,1200 square feet","350 square feet,Very Good,2013,Good,Very Bad,High,A Lot,10 min away,700 square feet",0,0,94551,2022-06-16 21:40:44,89402
60fec1773a586a6acacdd193,ma_choice_v4_observers_pilot1,60fec1773a586a6acacdd193,18,0,-1,-1,"Quality of kitchen,Size of yard,Year building was built,Amount of traffic,Size of home,Noise pollution,Closeness to parks,Quality of heat/AC system,Reputation of closest school","Moderate,550 square feet,2012,Very Little,1500 square feet,High,25 min away,Moderate,Good","Very Bad,250 square feet,1983,A Moderate Amount,1000 square feet,Low,10 min away,Very Good,Bad",1,1,7917,2022-06-16 21:40:46,89410
6297ec4dbdefde1a517c92d5,ma_choice_v4_observers_pilot1,6297ec4dbdefde1a517c92d5,7,1,-1,-1,"Quality of kitchen,Amount of traffic,Size of home,Quality of heat/AC system,Closeness to parks,Reputation of closest school,Year building was built,Size of yard,Noise pollution","Very Good,Very Little,1500 square feet,Very Good,25 min away,Moderate,1955,500 square feet,Very Low","Very Bad,A Lot,1100 square feet,Moderate,15 min away,Very Bad,2006,300 square feet,Moderate",0,0,20147,2022-06-16 21:40:48,89420
