subject,version,assignmentId,trial,attribute,rating,least_preferred,most_preferred,type,rt,rt2,full_or_lex,signed_weights,original_or_followup,stamp,id
5c9e829c7c5bfd00177fe952,ma_choice_v4_observers_pilot1,5c9e829c7c5bfd00177fe952,0,Reputation of closest school,1,,,ew_att_rating,25860,,,,,2022-06-16 21:38:54,21834
5c9e829c7c5bfd00177fe952,ma_choice_v4_observers_pilot1,5c9e829c7c5bfd00177fe952,0,Closeness to parks,1,,,ew_att_rating,25860,,,,,2022-06-16 21:38:54,21835
5c9e829c7c5bfd00177fe952,ma_choice_v4_observers_pilot1,5c9e829c7c5bfd00177fe952,0,Size of yard,1,,,ew_att_rating,25860,,,,,2022-06-16 21:38:54,21836
5c9e829c7c5bfd00177fe952,ma_choice_v4_observers_pilot1,5c9e829c7c5bfd00177fe952,0,Size of home,1,,,ew_att_rating,25860,,,,,2022-06-16 21:38:54,21837
5c9e829c7c5bfd00177fe952,ma_choice_v4_observers_pilot1,5c9e829c7c5bfd00177fe952,0,Quality of heat/AC system,1,,,ew_att_rating,25860,,,,,2022-06-16 21:38:54,21838
5c9e829c7c5bfd00177fe952,ma_choice_v4_observers_pilot1,5c9e829c7c5bfd00177fe952,0,Closeness to parks,1,,,lex_att_rating,14868,,,,,2022-06-16 21:39:36,21868
5c9e829c7c5bfd00177fe952,ma_choice_v4_observers_pilot1,5c9e829c7c5bfd00177fe952,7,Amount of traffic,0,,,wad_att_rating,6516,,,,,2022-06-16 21:39:54,21880
5c9e829c7c5bfd00177fe952,ma_choice_v4_observers_pilot1,5c9e829c7c5bfd00177fe952,3,Year building was built,50,,,wad_att_rating,7649,,,,,2022-06-16 21:40:02,21889
5c9e829c7c5bfd00177fe952,ma_choice_v4_observers_pilot1,5c9e829c7c5bfd00177fe952,1,Noise pollution,100,,,wad_att_rating,2838,,,,,2022-06-16 21:40:05,21892
5c9e829c7c5bfd00177fe952,ma_choice_v4_observers_pilot1,5c9e829c7c5bfd00177fe952,0,Closeness to parks,0,,,wad_att_rating,2745,,,,,2022-06-16 21:40:08,21896
5c9e829c7c5bfd00177fe952,ma_choice_v4_observers_pilot1,5c9e829c7c5bfd00177fe952,5,Quality of kitchen,0,,,wad_att_rating,2800,,,,,2022-06-16 21:40:10,21900
5c9e829c7c5bfd00177fe952,ma_choice_v4_observers_pilot1,5c9e829c7c5bfd00177fe952,6,Quality of heat/AC system,13,,,wad_att_rating,3365,,,,,2022-06-16 21:40:14,21903
5c9e829c7c5bfd00177fe952,ma_choice_v4_observers_pilot1,5c9e829c7c5bfd00177fe952,8,Size of home,50,,,wad_att_rating,5224,,,,,2022-06-16 21:40:19,21913
5c9e829c7c5bfd00177fe952,ma_choice_v4_observers_pilot1,5c9e829c7c5bfd00177fe952,2,Reputation of closest school,19,,,wad_att_rating,2740,,,,,2022-06-16 21:40:22,21916
5c9e829c7c5bfd00177fe952,ma_choice_v4_observers_pilot1,5c9e829c7c5bfd00177fe952,4,Size of yard,76,,,wad_att_rating,2697,,,,,2022-06-16 21:40:24,21921
5c9e829c7c5bfd00177fe952,ma_choice_v4_observers_pilot1,5c9e829c7c5bfd00177fe952,6,Quality of heat/AC system,-1,Very Good,Moderate,direction,6420,,,,,2022-06-16 21:41:02,21975
5c9e829c7c5bfd00177fe952,ma_choice_v4_observers_pilot1,5c9e829c7c5bfd00177fe952,7,Amount of traffic,-1,A Lot,A Lot,direction,2066,,,,,2022-06-16 21:41:08,21982
5c9e829c7c5bfd00177fe952,ma_choice_v4_observers_pilot1,5c9e829c7c5bfd00177fe952,0,Closeness to parks,-1,25 min away,10 min away,direction,2888,,,,,2022-06-16 21:42:06,22047
5c9e829c7c5bfd00177fe952,ma_choice_v4_observers_pilot1,5c9e829c7c5bfd00177fe952,2,Reputation of closest school,-1,Very Good,Moderate,direction,1807,,,,,2022-06-16 21:42:10,22054
5c9e829c7c5bfd00177fe952,ma_choice_v4_observers_pilot1,5c9e829c7c5bfd00177fe952,1,Noise pollution,-1,High,Low,direction,1328,,,,,2022-06-16 21:42:14,22058
5c9e829c7c5bfd00177fe952,ma_choice_v4_observers_pilot1,5c9e829c7c5bfd00177fe952,8,Size of home,-1,1800 square feet,600 square feet,direction,1381,,,,,2022-06-16 21:42:17,22063
5c9e829c7c5bfd00177fe952,ma_choice_v4_observers_pilot1,5c9e829c7c5bfd00177fe952,5,Quality of kitchen,-1,Good,Moderate,direction,1491,,,,,2022-06-16 21:42:20,22069
5c9e829c7c5bfd00177fe952,ma_choice_v4_observers_pilot1,5c9e829c7c5bfd00177fe952,4,Size of yard,-1,600 square feet,0 square feet,direction,3011,,,,,2022-06-16 21:42:26,22075
5c9e829c7c5bfd00177fe952,ma_choice_v4_observers_pilot1,5c9e829c7c5bfd00177fe952,3,Year building was built,-1,2020,1950,direction,1222,,,,,2022-06-16 21:42:29,22084
60fde5e29e585481874a9d16,ma_choice_v4_observers_pilot1,60fde5e29e585481874a9d16,8,Size of home,0,,,wad_att_rating,7324,,,,,2022-06-16 22:05:02,23263
60fde5e29e585481874a9d16,ma_choice_v4_observers_pilot1,60fde5e29e585481874a9d16,1,Noise pollution,0,,,wad_att_rating,3248,,,,,2022-06-16 22:05:05,23266
60fde5e29e585481874a9d16,ma_choice_v4_observers_pilot1,60fde5e29e585481874a9d16,3,Year building was built,0,,,wad_att_rating,3477,,,,,2022-06-16 22:05:09,23268
60fde5e29e585481874a9d16,ma_choice_v4_observers_pilot1,60fde5e29e585481874a9d16,4,Size of yard,0,,,wad_att_rating,3428,,,,,2022-06-16 22:05:12,23271
60fde5e29e585481874a9d16,ma_choice_v4_observers_pilot1,60fde5e29e585481874a9d16,0,Closeness to parks,0,,,wad_att_rating,3337,,,,,2022-06-16 22:05:15,23273
60fde5e29e585481874a9d16,ma_choice_v4_observers_pilot1,60fde5e29e585481874a9d16,6,Quality of heat/AC system,100,,,wad_att_rating,6900,,,,,2022-06-16 22:05:22,23278
60fde5e29e585481874a9d16,ma_choice_v4_observers_pilot1,60fde5e29e585481874a9d16,2,Reputation of closest school,0,,,wad_att_rating,3509,,,,,2022-06-16 22:05:26,23281
60fde5e29e585481874a9d16,ma_choice_v4_observers_pilot1,60fde5e29e585481874a9d16,5,Quality of kitchen,0,,,wad_att_rating,2653,,,,,2022-06-16 22:05:28,23283
60fde5e29e585481874a9d16,ma_choice_v4_observers_pilot1,60fde5e29e585481874a9d16,7,Amount of traffic,0,,,wad_att_rating,3106,,,,,2022-06-16 22:05:31,23285
60fec1773a586a6acacdd193,ma_choice_v4_observers_pilot1,60fec1773a586a6acacdd193,0,Closeness to parks,1,,,lex_att_rating,22369,,,,,2022-06-16 22:05:38,23290
60fde5e29e585481874a9d16,ma_choice_v4_observers_pilot1,60fde5e29e585481874a9d16,0,Quality of heat/AC system,1,,,ew_att_rating,3356,,,,,2022-06-16 22:05:49,23297
60fde5e29e585481874a9d16,ma_choice_v4_observers_pilot1,60fde5e29e585481874a9d16,0,Quality of heat/AC system,1,,,lex_att_rating,2584,,,,,2022-06-16 22:05:58,23302
60fec1773a586a6acacdd193,ma_choice_v4_observers_pilot1,60fec1773a586a6acacdd193,0,Closeness to parks,1,,,ew_att_rating,11333,,,,,2022-06-16 22:06:00,23303
60fec1773a586a6acacdd193,ma_choice_v4_observers_pilot1,60fec1773a586a6acacdd193,0,Quality of kitchen,1,,,ew_att_rating,11333,,,,,2022-06-16 22:06:00,23304
60fec1773a586a6acacdd193,ma_choice_v4_observers_pilot1,60fec1773a586a6acacdd193,7,Amount of traffic,50,,,wad_att_rating,5144,,,,,2022-06-16 22:06:10,23310
60fec1773a586a6acacdd193,ma_choice_v4_observers_pilot1,60fec1773a586a6acacdd193,4,Size of yard,32,,,wad_att_rating,6693,,,,,2022-06-16 22:06:17,23312
60fec1773a586a6acacdd193,ma_choice_v4_observers_pilot1,60fec1773a586a6acacdd193,5,Quality of kitchen,62,,,wad_att_rating,4043,,,,,2022-06-16 22:06:21,23313
60fec1773a586a6acacdd193,ma_choice_v4_observers_pilot1,60fec1773a586a6acacdd193,1,Noise pollution,12,,,wad_att_rating,4249,,,,,2022-06-16 22:06:25,23317
60fec1773a586a6acacdd193,ma_choice_v4_observers_pilot1,60fec1773a586a6acacdd193,0,Closeness to parks,100,,,wad_att_rating,3714,,,,,2022-06-16 22:06:29,23319
60fec1773a586a6acacdd193,ma_choice_v4_observers_pilot1,60fec1773a586a6acacdd193,3,Year building was built,37,,,wad_att_rating,3723,,,,,2022-06-16 22:06:33,23320
60fec1773a586a6acacdd193,ma_choice_v4_observers_pilot1,60fec1773a586a6acacdd193,8,Size of home,49,,,wad_att_rating,3819,,,,,2022-06-16 22:06:37,23323
60fec1773a586a6acacdd193,ma_choice_v4_observers_pilot1,60fec1773a586a6acacdd193,6,Quality of heat/AC system,25,,,wad_att_rating,3567,,,,,2022-06-16 22:06:40,23330
60fec1773a586a6acacdd193,ma_choice_v4_observers_pilot1,60fec1773a586a6acacdd193,2,Reputation of closest school,13,,,wad_att_rating,3257,,,,,2022-06-16 22:06:44,23331
60fec1773a586a6acacdd193,ma_choice_v4_observers_pilot1,60fec1773a586a6acacdd193,6,Quality of heat/AC system,-1,Moderate,Very Bad,direction,6000,,,,,2022-06-16 22:07:47,23367
60fec1773a586a6acacdd193,ma_choice_v4_observers_pilot1,60fec1773a586a6acacdd193,1,Noise pollution,-1,Low,Very High,direction,3821,,,,,2022-06-16 22:08:00,23376
60fec1773a586a6acacdd193,ma_choice_v4_observers_pilot1,60fec1773a586a6acacdd193,5,Quality of kitchen,-1,Very Good,Very Bad,direction,3888,,,,,2022-06-16 22:08:08,23380
60fec1773a586a6acacdd193,ma_choice_v4_observers_pilot1,60fec1773a586a6acacdd193,4,Size of yard,-1,300 square feet,0 square feet,direction,3290,,,,,2022-06-16 22:08:16,23385
60fec1773a586a6acacdd193,ma_choice_v4_observers_pilot1,60fec1773a586a6acacdd193,2,Reputation of closest school,-1,Moderate,Very Bad,direction,2654,,,,,2022-06-16 22:08:26,23392
60fec1773a586a6acacdd193,ma_choice_v4_observers_pilot1,60fec1773a586a6acacdd193,7,Amount of traffic,-1,A Moderate Amount,A Lot,direction,2331,,,,,2022-06-16 22:08:34,23395
60fec1773a586a6acacdd193,ma_choice_v4_observers_pilot1,60fec1773a586a6acacdd193,8,Size of home,-1,1200 square feet,600 square feet,direction,2532,,,,,2022-06-16 22:08:40,23401
60fec1773a586a6acacdd193,ma_choice_v4_observers_pilot1,60fec1773a586a6acacdd193,3,Year building was built,-1,1985,1950,direction,2099,,,,,2022-06-16 22:08:50,23411
60fec1773a586a6acacdd193,ma_choice_v4_observers_pilot1,60fec1773a586a6acacdd193,0,Closeness to parks,-1,10 min away,30 min away,direction,2145,,,,,2022-06-16 22:08:57,23414
60fde5e29e585481874a9d16,ma_choice_v4_observers_pilot1,60fde5e29e585481874a9d16,5,Quality of kitchen,-1,Moderate,Very Bad,direction,4562,,,,,2022-06-16 22:12:31,23528
60fde5e29e585481874a9d16,ma_choice_v4_observers_pilot1,60fde5e29e585481874a9d16,2,Reputation of closest school,-1,Very Good,Very Bad,direction,2781,,,,,2022-06-16 22:12:40,23539
60fde5e29e585481874a9d16,ma_choice_v4_observers_pilot1,60fde5e29e585481874a9d16,1,Noise pollution,-1,Very Low,Very High,direction,2077,,,,,2022-06-16 22:12:46,23545
61004696895aeda4629ecd6e,ma_choice_v4_observers_pilot1,61004696895aeda4629ecd6e,0,Size of home,1,,,lex_att_rating,12892,,,,,2022-06-16 22:12:51,23548
60fde5e29e585481874a9d16,ma_choice_v4_observers_pilot1,60fde5e29e585481874a9d16,8,Size of home,-1,1800 square feet,600 square feet,direction,2940,,,,,2022-06-16 22:12:53,23549
60fde5e29e585481874a9d16,ma_choice_v4_observers_pilot1,60fde5e29e585481874a9d16,6,Quality of heat/AC system,-1,Very Good,Very Bad,direction,2408,,,,,2022-06-16 22:12:59,23557
60fde5e29e585481874a9d16,ma_choice_v4_observers_pilot1,60fde5e29e585481874a9d16,7,Amount of traffic,-1,Very Little,A Lot,direction,1895,,,,,2022-06-16 22:13:05,23564
60fde5e29e585481874a9d16,ma_choice_v4_observers_pilot1,60fde5e29e585481874a9d16,3,Year building was built,-1,2020,1950,direction,1775,,,,,2022-06-16 22:13:11,23572
61004696895aeda4629ecd6e,ma_choice_v4_observers_pilot1,61004696895aeda4629ecd6e,0,Size of home,1,,,ew_att_rating,8050,,,,,2022-06-16 22:13:16,23578
61004696895aeda4629ecd6e,ma_choice_v4_observers_pilot1,61004696895aeda4629ecd6e,0,Quality of kitchen,1,,,ew_att_rating,8050,,,,,2022-06-16 22:13:16,23579
61004696895aeda4629ecd6e,ma_choice_v4_observers_pilot1,61004696895aeda4629ecd6e,0,Amount of traffic,1,,,ew_att_rating,8050,,,,,2022-06-16 22:13:16,23580
61004696895aeda4629ecd6e,ma_choice_v4_observers_pilot1,61004696895aeda4629ecd6e,0,Reputation of closest school,1,,,ew_att_rating,8050,,,,,2022-06-16 22:13:16,23581
61004696895aeda4629ecd6e,ma_choice_v4_observers_pilot1,61004696895aeda4629ecd6e,0,Quality of heat/AC system,1,,,ew_att_rating,8050,,,,,2022-06-16 22:13:16,23582
61004696895aeda4629ecd6e,ma_choice_v4_observers_pilot1,61004696895aeda4629ecd6e,0,Year building was built,1,,,ew_att_rating,8050,,,,,2022-06-16 22:13:16,23583
60fde5e29e585481874a9d16,ma_choice_v4_observers_pilot1,60fde5e29e585481874a9d16,0,Closeness to parks,-1,10 min away,30 min away,direction,2367,,,,,2022-06-16 22:13:17,23586
60fde5e29e585481874a9d16,ma_choice_v4_observers_pilot1,60fde5e29e585481874a9d16,4,Size of yard,-1,600 square feet,0 square feet,direction,1684,,,,,2022-06-16 22:13:22,23592
61004696895aeda4629ecd6e,ma_choice_v4_observers_pilot1,61004696895aeda4629ecd6e,1,Noise pollution,57,,,wad_att_rating,5986,,,,,2022-06-16 22:13:24,23594
61004696895aeda4629ecd6e,ma_choice_v4_observers_pilot1,61004696895aeda4629ecd6e,5,Quality of kitchen,48,,,wad_att_rating,2679,,,,,2022-06-16 22:13:26,23596
61004696895aeda4629ecd6e,ma_choice_v4_observers_pilot1,61004696895aeda4629ecd6e,6,Quality of heat/AC system,46,,,wad_att_rating,3177,,,,,2022-06-16 22:13:30,23597
61004696895aeda4629ecd6e,ma_choice_v4_observers_pilot1,61004696895aeda4629ecd6e,7,Amount of traffic,63,,,wad_att_rating,3707,,,,,2022-06-16 22:13:33,23603
61004696895aeda4629ecd6e,ma_choice_v4_observers_pilot1,61004696895aeda4629ecd6e,3,Year building was built,57,,,wad_att_rating,2761,,,,,2022-06-16 22:13:36,23605
62aa5d14105da91334fa6ac6,ma_choice_v4_observers_pilot1,62aa5d14105da91334fa6ac6,0,Quality of heat/AC system,1,,,ew_att_rating,24368,,,,,2022-06-16 22:13:38,23607
62aa5d14105da91334fa6ac6,ma_choice_v4_observers_pilot1,62aa5d14105da91334fa6ac6,0,Size of yard,1,,,ew_att_rating,24368,,,,,2022-06-16 22:13:38,23608
62aa5d14105da91334fa6ac6,ma_choice_v4_observers_pilot1,62aa5d14105da91334fa6ac6,0,Amount of traffic,1,,,ew_att_rating,24368,,,,,2022-06-16 22:13:38,23609
62aa5d14105da91334fa6ac6,ma_choice_v4_observers_pilot1,62aa5d14105da91334fa6ac6,0,Closeness to parks,1,,,ew_att_rating,24368,,,,,2022-06-16 22:13:38,23610
61004696895aeda4629ecd6e,ma_choice_v4_observers_pilot1,61004696895aeda4629ecd6e,2,Reputation of closest school,61,,,wad_att_rating,2590,,,,,2022-06-16 22:13:39,23611
61004696895aeda4629ecd6e,ma_choice_v4_observers_pilot1,61004696895aeda4629ecd6e,8,Size of home,70,,,wad_att_rating,3021,,,,,2022-06-16 22:13:42,23612
61004696895aeda4629ecd6e,ma_choice_v4_observers_pilot1,61004696895aeda4629ecd6e,4,Size of yard,54,,,wad_att_rating,3094,,,,,2022-06-16 22:13:45,23614
61004696895aeda4629ecd6e,ma_choice_v4_observers_pilot1,61004696895aeda4629ecd6e,0,Closeness to parks,41,,,wad_att_rating,2042,,,,,2022-06-16 22:13:47,23616
62aa5d14105da91334fa6ac6,ma_choice_v4_observers_pilot1,62aa5d14105da91334fa6ac6,0,Amount of traffic,1,,,lex_att_rating,11238,,,,,2022-06-16 22:13:55,23624
62aa5d14105da91334fa6ac6,ma_choice_v4_observers_pilot1,62aa5d14105da91334fa6ac6,0,Closeness to parks,25,,,wad_att_rating,6507,,,,,2022-06-16 22:14:04,23629
62aa5d14105da91334fa6ac6,ma_choice_v4_observers_pilot1,62aa5d14105da91334fa6ac6,4,Size of yard,0,,,wad_att_rating,7773,,,,,2022-06-16 22:14:11,23633
62aa5d14105da91334fa6ac6,ma_choice_v4_observers_pilot1,62aa5d14105da91334fa6ac6,5,Quality of kitchen,37,,,wad_att_rating,14166,,,,,2022-06-16 22:14:25,23641
62aa5d14105da91334fa6ac6,ma_choice_v4_observers_pilot1,62aa5d14105da91334fa6ac6,1,Noise pollution,0,,,wad_att_rating,6577,,,,,2022-06-16 22:14:32,23646
62aa5d14105da91334fa6ac6,ma_choice_v4_observers_pilot1,62aa5d14105da91334fa6ac6,6,Quality of heat/AC system,86,,,wad_att_rating,4324,,,,,2022-06-16 22:14:36,23649
62aa5d14105da91334fa6ac6,ma_choice_v4_observers_pilot1,62aa5d14105da91334fa6ac6,7,Amount of traffic,95,,,wad_att_rating,3228,,,,,2022-06-16 22:14:40,23654
62aa5d14105da91334fa6ac6,ma_choice_v4_observers_pilot1,62aa5d14105da91334fa6ac6,2,Reputation of closest school,50,,,wad_att_rating,2827,,,,,2022-06-16 22:14:42,23657
62aa5d14105da91334fa6ac6,ma_choice_v4_observers_pilot1,62aa5d14105da91334fa6ac6,8,Size of home,30,,,wad_att_rating,6843,,,,,2022-06-16 22:14:49,23665
62aa5d14105da91334fa6ac6,ma_choice_v4_observers_pilot1,62aa5d14105da91334fa6ac6,3,Year building was built,11,,,wad_att_rating,5031,,,,,2022-06-16 22:14:54,23671
5dcc3ec7db13278d75c8622f,ma_choice_v4_observers_pilot1,5dcc3ec7db13278d75c8622f,0,Quality of kitchen,1,,,lex_att_rating,12566,,,,,2022-06-16 22:16:09,23729
5dcc3ec7db13278d75c8622f,ma_choice_v4_observers_pilot1,5dcc3ec7db13278d75c8622f,0,Year building was built,1,,,ew_att_rating,13813,,,,,2022-06-16 22:16:32,23740
5dcc3ec7db13278d75c8622f,ma_choice_v4_observers_pilot1,5dcc3ec7db13278d75c8622f,0,Quality of kitchen,1,,,ew_att_rating,13813,,,,,2022-06-16 22:16:32,23741
5dcc3ec7db13278d75c8622f,ma_choice_v4_observers_pilot1,5dcc3ec7db13278d75c8622f,0,Size of home,1,,,ew_att_rating,13813,,,,,2022-06-16 22:16:32,23742
5dcc3ec7db13278d75c8622f,ma_choice_v4_observers_pilot1,5dcc3ec7db13278d75c8622f,6,Quality of heat/AC system,51,,,wad_att_rating,3065,,,,,2022-06-16 22:16:36,23746
5dcc3ec7db13278d75c8622f,ma_choice_v4_observers_pilot1,5dcc3ec7db13278d75c8622f,3,Year building was built,60,,,wad_att_rating,2846,,,,,2022-06-16 22:16:39,23747
5dcc3ec7db13278d75c8622f,ma_choice_v4_observers_pilot1,5dcc3ec7db13278d75c8622f,8,Size of home,60,,,wad_att_rating,1962,,,,,2022-06-16 22:16:41,23749
5dcc3ec7db13278d75c8622f,ma_choice_v4_observers_pilot1,5dcc3ec7db13278d75c8622f,4,Size of yard,34,,,wad_att_rating,2292,,,,,2022-06-16 22:16:43,23752
5dcc3ec7db13278d75c8622f,ma_choice_v4_observers_pilot1,5dcc3ec7db13278d75c8622f,2,Reputation of closest school,6,,,wad_att_rating,2732,,,,,2022-06-16 22:16:46,23754
5dcc3ec7db13278d75c8622f,ma_choice_v4_observers_pilot1,5dcc3ec7db13278d75c8622f,5,Quality of kitchen,61,,,wad_att_rating,2404,,,,,2022-06-16 22:16:49,23757
5dcc3ec7db13278d75c8622f,ma_choice_v4_observers_pilot1,5dcc3ec7db13278d75c8622f,1,Noise pollution,49,,,wad_att_rating,2615,,,,,2022-06-16 22:16:51,23760
5dcc3ec7db13278d75c8622f,ma_choice_v4_observers_pilot1,5dcc3ec7db13278d75c8622f,7,Amount of traffic,37,,,wad_att_rating,2853,,,,,2022-06-16 22:16:54,23761
5dcc3ec7db13278d75c8622f,ma_choice_v4_observers_pilot1,5dcc3ec7db13278d75c8622f,0,Closeness to parks,42,,,wad_att_rating,2878,,,,,2022-06-16 22:16:57,23764
61004696895aeda4629ecd6e,ma_choice_v4_observers_pilot1,61004696895aeda4629ecd6e,4,Size of yard,-1,600 square feet,0 square feet,direction,2391,,,,,2022-06-16 22:17:33,23820
61004696895aeda4629ecd6e,ma_choice_v4_observers_pilot1,61004696895aeda4629ecd6e,5,Quality of kitchen,-1,Good,Very Bad,direction,2572,,,,,2022-06-16 22:17:43,23831
61004696895aeda4629ecd6e,ma_choice_v4_observers_pilot1,61004696895aeda4629ecd6e,1,Noise pollution,-1,Moderate,Very High,direction,3981,,,,,2022-06-16 22:17:49,23838
5dcc3ec7db13278d75c8622f,ma_choice_v4_observers_pilot1,5dcc3ec7db13278d75c8622f,7,Amount of traffic,-1,Very Little,Very Little,direction,9066,,,,,2022-06-16 22:17:51,23844
5dcc3ec7db13278d75c8622f,ma_choice_v4_observers_pilot1,5dcc3ec7db13278d75c8622f,8,Size of home,-1,1800 square feet,600 square feet,direction,1595,,,,,2022-06-16 22:17:58,23853
61004696895aeda4629ecd6e,ma_choice_v4_observers_pilot1,61004696895aeda4629ecd6e,0,Closeness to parks,-1,20 min away,30 min away,direction,4886,,,,,2022-06-16 22:17:59,23856
5dcc3ec7db13278d75c8622f,ma_choice_v4_observers_pilot1,5dcc3ec7db13278d75c8622f,5,Quality of kitchen,-1,Moderate,Very Bad,direction,1616,,,,,2022-06-16 22:18:03,23861
61004696895aeda4629ecd6e,ma_choice_v4_observers_pilot1,61004696895aeda4629ecd6e,7,Amount of traffic,-1,A Little,A Lot,direction,1860,,,,,2022-06-16 22:18:05,23864
5dcc3ec7db13278d75c8622f,ma_choice_v4_observers_pilot1,5dcc3ec7db13278d75c8622f,3,Year building was built,-1,2020,1950,direction,1828,,,,,2022-06-16 22:18:08,23869
61004696895aeda4629ecd6e,ma_choice_v4_observers_pilot1,61004696895aeda4629ecd6e,3,Year building was built,-1,1950,2020,direction,1132,,,,,2022-06-16 22:18:14,23875
61004696895aeda4629ecd6e,ma_choice_v4_observers_pilot1,61004696895aeda4629ecd6e,2,Reputation of closest school,-1,Moderate,Very Bad,direction,1688,,,,,2022-06-16 22:18:18,23881
5dcc3ec7db13278d75c8622f,ma_choice_v4_observers_pilot1,5dcc3ec7db13278d75c8622f,1,Noise pollution,-1,Moderate,Very High,direction,9375,,,,,2022-06-16 22:18:21,23886
61004696895aeda4629ecd6e,ma_choice_v4_observers_pilot1,61004696895aeda4629ecd6e,6,Quality of heat/AC system,-1,Moderate,Very Bad,direction,1446,,,,,2022-06-16 22:18:22,23887
5dcc3ec7db13278d75c8622f,ma_choice_v4_observers_pilot1,5dcc3ec7db13278d75c8622f,0,Closeness to parks,-1,15 min away,30 min away,direction,2552,,,,,2022-06-16 22:18:26,23888
61004696895aeda4629ecd6e,ma_choice_v4_observers_pilot1,61004696895aeda4629ecd6e,8,Size of home,-1,1200 square feet,1800 square feet,direction,2953,,,,,2022-06-16 22:18:28,23889
5dcc3ec7db13278d75c8622f,ma_choice_v4_observers_pilot1,5dcc3ec7db13278d75c8622f,6,Quality of heat/AC system,-1,Moderate,Very Bad,direction,1571,,,,,2022-06-16 22:18:30,23892
5dcc3ec7db13278d75c8622f,ma_choice_v4_observers_pilot1,5dcc3ec7db13278d75c8622f,4,Size of yard,-1,600 square feet,0 square feet,direction,1633,,,,,2022-06-16 22:18:35,23896
5dcc3ec7db13278d75c8622f,ma_choice_v4_observers_pilot1,5dcc3ec7db13278d75c8622f,2,Reputation of closest school,-1,Good,Very Bad,direction,1422,,,,,2022-06-16 22:18:40,23899
62aa5d14105da91334fa6ac6,ma_choice_v4_observers_pilot1,62aa5d14105da91334fa6ac6,7,Amount of traffic,-1,Very Little,A Lot,direction,3654,,,,,2022-06-16 22:21:19,23970
605e6f4f35800996a22ac0ab,ma_choice_v4_observers_pilot1,605e6f4f35800996a22ac0ab,0,Quality of heat/AC system,1,,,lex_att_rating,6250,,,,,2022-06-16 22:21:23,23973
62aa5d14105da91334fa6ac6,ma_choice_v4_observers_pilot1,62aa5d14105da91334fa6ac6,5,Quality of kitchen,-1,Very Good,Very Bad,direction,6978,,,,,2022-06-16 22:21:34,23978
62aa5d14105da91334fa6ac6,ma_choice_v4_observers_pilot1,62aa5d14105da91334fa6ac6,4,Size of yard,-1,600 square feet,0 square feet,direction,5081,,,,,2022-06-16 22:21:47,23982
605e6f4f35800996a22ac0ab,ma_choice_v4_observers_pilot1,605e6f4f35800996a22ac0ab,0,Quality of heat/AC system,1,,,ew_att_rating,14606,,,,,2022-06-16 22:21:52,23984
605e6f4f35800996a22ac0ab,ma_choice_v4_observers_pilot1,605e6f4f35800996a22ac0ab,0,Noise pollution,1,,,ew_att_rating,14606,,,,,2022-06-16 22:21:52,23985
605e6f4f35800996a22ac0ab,ma_choice_v4_observers_pilot1,605e6f4f35800996a22ac0ab,0,Quality of kitchen,1,,,ew_att_rating,14606,,,,,2022-06-16 22:21:52,23986
62aa5d14105da91334fa6ac6,ma_choice_v4_observers_pilot1,62aa5d14105da91334fa6ac6,2,Reputation of closest school,-1,Very Good,Very Bad,direction,3098,,,,,2022-06-16 22:21:54,23987
62aa5d14105da91334fa6ac6,ma_choice_v4_observers_pilot1,62aa5d14105da91334fa6ac6,3,Year building was built,-1,2020,1950,direction,1991,,,,,2022-06-16 22:21:59,23989
62aa5d14105da91334fa6ac6,ma_choice_v4_observers_pilot1,62aa5d14105da91334fa6ac6,1,Noise pollution,-1,Very Low,Very High,direction,3093,,,,,2022-06-16 22:22:08,23991
605e6f4f35800996a22ac0ab,ma_choice_v4_observers_pilot1,605e6f4f35800996a22ac0ab,3,Year building was built,0,,,wad_att_rating,9594,,,,,2022-06-16 22:22:12,23993
62aa5d14105da91334fa6ac6,ma_choice_v4_observers_pilot1,62aa5d14105da91334fa6ac6,8,Size of home,-1,1800 square feet,600 square feet,direction,2242,,,,,2022-06-16 22:22:13,23994
605e6f4f35800996a22ac0ab,ma_choice_v4_observers_pilot1,605e6f4f35800996a22ac0ab,4,Size of yard,0,,,wad_att_rating,4332,,,,,2022-06-16 22:22:16,23996
605e6f4f35800996a22ac0ab,ma_choice_v4_observers_pilot1,605e6f4f35800996a22ac0ab,8,Size of home,0,,,wad_att_rating,2896,,,,,2022-06-16 22:22:19,24002
62aa5d14105da91334fa6ac6,ma_choice_v4_observers_pilot1,62aa5d14105da91334fa6ac6,0,Closeness to parks,-1,10 min away,30 min away,direction,2723,,,,,2022-06-16 22:22:20,24003
605e6f4f35800996a22ac0ab,ma_choice_v4_observers_pilot1,605e6f4f35800996a22ac0ab,0,Closeness to parks,0,,,wad_att_rating,2679,,,,,2022-06-16 22:22:22,24004
62aa5d14105da91334fa6ac6,ma_choice_v4_observers_pilot1,62aa5d14105da91334fa6ac6,6,Quality of heat/AC system,-1,Very Good,Very Bad,direction,1997,,,,,2022-06-16 22:22:26,24006
605e6f4f35800996a22ac0ab,ma_choice_v4_observers_pilot1,605e6f4f35800996a22ac0ab,5,Quality of kitchen,92,,,wad_att_rating,6978,,,,,2022-06-16 22:22:29,24008
605e6f4f35800996a22ac0ab,ma_choice_v4_observers_pilot1,605e6f4f35800996a22ac0ab,1,Noise pollution,62,,,wad_att_rating,5616,,,,,2022-06-16 22:22:35,24010
605e6f4f35800996a22ac0ab,ma_choice_v4_observers_pilot1,605e6f4f35800996a22ac0ab,2,Reputation of closest school,0,,,wad_att_rating,3163,,,,,2022-06-16 22:22:38,24011
605e6f4f35800996a22ac0ab,ma_choice_v4_observers_pilot1,605e6f4f35800996a22ac0ab,6,Quality of heat/AC system,100,,,wad_att_rating,4997,,,,,2022-06-16 22:22:43,24014
605e6f4f35800996a22ac0ab,ma_choice_v4_observers_pilot1,605e6f4f35800996a22ac0ab,7,Amount of traffic,50,,,wad_att_rating,6245,,,,,2022-06-16 22:22:49,24017
6074bfb81bc1c8cc50879ce4,ma_choice_v4_observers_pilot1,6074bfb81bc1c8cc50879ce4,8,Size of home,75,,,wad_att_rating,13016,,,,,2022-06-16 22:26:32,24060
6074bfb81bc1c8cc50879ce4,ma_choice_v4_observers_pilot1,6074bfb81bc1c8cc50879ce4,2,Reputation of closest school,49,,,wad_att_rating,10645,,,,,2022-06-16 22:26:43,24072
6074bfb81bc1c8cc50879ce4,ma_choice_v4_observers_pilot1,6074bfb81bc1c8cc50879ce4,1,Noise pollution,25,,,wad_att_rating,10390,,,,,2022-06-16 22:26:53,24076
6074bfb81bc1c8cc50879ce4,ma_choice_v4_observers_pilot1,6074bfb81bc1c8cc50879ce4,3,Year building was built,63,,,wad_att_rating,14097,,,,,2022-06-16 22:27:07,24078
6074bfb81bc1c8cc50879ce4,ma_choice_v4_observers_pilot1,6074bfb81bc1c8cc50879ce4,4,Size of yard,75,,,wad_att_rating,7150,,,,,2022-06-16 22:27:15,24079
58a1fe40ea3d11000170d9b9,ma_choice_v4_observers_pilot1,58a1fe40ea3d11000170d9b9,0,Quality of kitchen,1,,,ew_att_rating,13851,,,,,2022-06-16 22:27:17,24080
6074bfb81bc1c8cc50879ce4,ma_choice_v4_observers_pilot1,6074bfb81bc1c8cc50879ce4,7,Amount of traffic,25,,,wad_att_rating,8889,,,,,2022-06-16 22:27:23,24083
58a1fe40ea3d11000170d9b9,ma_choice_v4_observers_pilot1,58a1fe40ea3d11000170d9b9,0,Quality of kitchen,1,,,lex_att_rating,2311,,,,,2022-06-16 22:27:24,24084
6074bfb81bc1c8cc50879ce4,ma_choice_v4_observers_pilot1,6074bfb81bc1c8cc50879ce4,5,Quality of kitchen,49,,,wad_att_rating,6387,,,,,2022-06-16 22:27:30,24085
58a1fe40ea3d11000170d9b9,ma_choice_v4_observers_pilot1,58a1fe40ea3d11000170d9b9,5,Quality of kitchen,100,,,wad_att_rating,4764,,,,,2022-06-16 22:27:32,24086
6074bfb81bc1c8cc50879ce4,ma_choice_v4_observers_pilot1,6074bfb81bc1c8cc50879ce4,0,Closeness to parks,62,,,wad_att_rating,8131,,,,,2022-06-16 22:27:38,24089
58a1fe40ea3d11000170d9b9,ma_choice_v4_observers_pilot1,58a1fe40ea3d11000170d9b9,8,Size of home,0,,,wad_att_rating,6080,,,,,2022-06-16 22:27:38,24090
58a1fe40ea3d11000170d9b9,ma_choice_v4_observers_pilot1,58a1fe40ea3d11000170d9b9,3,Year building was built,0,,,wad_att_rating,2514,,,,,2022-06-16 22:27:41,24092
58a1fe40ea3d11000170d9b9,ma_choice_v4_observers_pilot1,58a1fe40ea3d11000170d9b9,6,Quality of heat/AC system,2,,,wad_att_rating,2720,,,,,2022-06-16 22:27:43,24093
6074bfb81bc1c8cc50879ce4,ma_choice_v4_observers_pilot1,6074bfb81bc1c8cc50879ce4,6,Quality of heat/AC system,75,,,wad_att_rating,6735,,,,,2022-06-16 22:27:45,24094
58a1fe40ea3d11000170d9b9,ma_choice_v4_observers_pilot1,58a1fe40ea3d11000170d9b9,1,Noise pollution,0,,,wad_att_rating,1892,,,,,2022-06-16 22:27:45,24095
58a1fe40ea3d11000170d9b9,ma_choice_v4_observers_pilot1,58a1fe40ea3d11000170d9b9,0,Closeness to parks,0,,,wad_att_rating,3455,,,,,2022-06-16 22:27:49,24098
58a1fe40ea3d11000170d9b9,ma_choice_v4_observers_pilot1,58a1fe40ea3d11000170d9b9,7,Amount of traffic,0,,,wad_att_rating,2035,,,,,2022-06-16 22:27:51,24100
58a1fe40ea3d11000170d9b9,ma_choice_v4_observers_pilot1,58a1fe40ea3d11000170d9b9,4,Size of yard,0,,,wad_att_rating,2273,,,,,2022-06-16 22:27:53,24101
58a1fe40ea3d11000170d9b9,ma_choice_v4_observers_pilot1,58a1fe40ea3d11000170d9b9,2,Reputation of closest school,0,,,wad_att_rating,2184,,,,,2022-06-16 22:27:55,24103
6297ec4dbdefde1a517c92d5,ma_choice_v4_observers_pilot1,6297ec4dbdefde1a517c92d5,3,Year building was built,50,,,wad_att_rating,5137,,,,,2022-06-16 22:28:39,24124
6297ec4dbdefde1a517c92d5,ma_choice_v4_observers_pilot1,6297ec4dbdefde1a517c92d5,7,Amount of traffic,50,,,wad_att_rating,4396,,,,,2022-06-16 22:28:43,24129
6297ec4dbdefde1a517c92d5,ma_choice_v4_observers_pilot1,6297ec4dbdefde1a517c92d5,5,Quality of kitchen,62,,,wad_att_rating,3577,,,,,2022-06-16 22:28:47,24136
6297ec4dbdefde1a517c92d5,ma_choice_v4_observers_pilot1,6297ec4dbdefde1a517c92d5,1,Noise pollution,74,,,wad_att_rating,3250,,,,,2022-06-16 22:28:50,24140
6297ec4dbdefde1a517c92d5,ma_choice_v4_observers_pilot1,6297ec4dbdefde1a517c92d5,6,Quality of heat/AC system,51,,,wad_att_rating,3619,,,,,2022-06-16 22:28:54,24145
6074bfb81bc1c8cc50879ce4,ma_choice_v4_observers_pilot1,6074bfb81bc1c8cc50879ce4,0,Quality of heat/AC system,1,,,ew_att_rating,47233,,,,,2022-06-16 22:28:54,24148
6074bfb81bc1c8cc50879ce4,ma_choice_v4_observers_pilot1,6074bfb81bc1c8cc50879ce4,0,Size of home,1,,,ew_att_rating,47233,,,,,2022-06-16 22:28:54,24149
6074bfb81bc1c8cc50879ce4,ma_choice_v4_observers_pilot1,6074bfb81bc1c8cc50879ce4,0,Size of yard,1,,,ew_att_rating,47233,,,,,2022-06-16 22:28:54,24150
6074bfb81bc1c8cc50879ce4,ma_choice_v4_observers_pilot1,6074bfb81bc1c8cc50879ce4,0,Quality of kitchen,1,,,ew_att_rating,47233,,,,,2022-06-16 22:28:54,24151
6074bfb81bc1c8cc50879ce4,ma_choice_v4_observers_pilot1,6074bfb81bc1c8cc50879ce4,0,Closeness to parks,1,,,ew_att_rating,47233,,,,,2022-06-16 22:28:54,24152
6297ec4dbdefde1a517c92d5,ma_choice_v4_observers_pilot1,6297ec4dbdefde1a517c92d5,8,Size of home,69,,,wad_att_rating,4330,,,,,2022-06-16 22:28:58,24156
58a1fe40ea3d11000170d9b9,ma_choice_v4_observers_pilot1,58a1fe40ea3d11000170d9b9,6,Quality of heat/AC system,-1,Moderate,Very Bad,direction,2949,,,,,2022-06-16 22:28:59,24157
6297ec4dbdefde1a517c92d5,ma_choice_v4_observers_pilot1,6297ec4dbdefde1a517c92d5,0,Closeness to parks,56,,,wad_att_rating,2985,,,,,2022-06-16 22:29:01,24160
6297ec4dbdefde1a517c92d5,ma_choice_v4_observers_pilot1,6297ec4dbdefde1a517c92d5,4,Size of yard,52,,,wad_att_rating,3834,,,,,2022-06-16 22:29:05,24163
58a1fe40ea3d11000170d9b9,ma_choice_v4_observers_pilot1,58a1fe40ea3d11000170d9b9,2,Reputation of closest school,-1,Moderate,Very Bad,direction,1478,,,,,2022-06-16 22:29:08,24166
6074bfb81bc1c8cc50879ce4,ma_choice_v4_observers_pilot1,6074bfb81bc1c8cc50879ce4,0,Size of home,1,,,lex_att_rating,9076,,,,,2022-06-16 22:29:09,24169
6297ec4dbdefde1a517c92d5,ma_choice_v4_observers_pilot1,6297ec4dbdefde1a517c92d5,2,Reputation of closest school,84,,,wad_att_rating,5278,,,,,2022-06-16 22:29:10,24170
58a1fe40ea3d11000170d9b9,ma_choice_v4_observers_pilot1,58a1fe40ea3d11000170d9b9,0,Closeness to parks,-1,15 min away,30 min away,direction,3680,,,,,2022-06-16 22:29:18,24176
6297ec4dbdefde1a517c92d5,ma_choice_v4_observers_pilot1,6297ec4dbdefde1a517c92d5,0,Reputation of closest school,1,,,lex_att_rating,5330,,,,,2022-06-16 22:29:19,24178
61055aec08d0edfeb3d38a00,ma_choice_v4_observers_pilot1,61055aec08d0edfeb3d38a00,0,Reputation of closest school,1,,,lex_att_rating,6218,,,,,2022-06-16 22:29:22,24179
58a1fe40ea3d11000170d9b9,ma_choice_v4_observers_pilot1,58a1fe40ea3d11000170d9b9,8,Size of home,-1,1200 square feet,600 square feet,direction,1891,,,,,2022-06-16 22:29:25,24182
6297ec4dbdefde1a517c92d5,ma_choice_v4_observers_pilot1,6297ec4dbdefde1a517c92d5,0,Noise pollution,1,,,ew_att_rating,8229,,,,,2022-06-16 22:29:32,24184
6297ec4dbdefde1a517c92d5,ma_choice_v4_observers_pilot1,6297ec4dbdefde1a517c92d5,0,Reputation of closest school,1,,,ew_att_rating,8229,,,,,2022-06-16 22:29:32,24185
58a1fe40ea3d11000170d9b9,ma_choice_v4_observers_pilot1,58a1fe40ea3d11000170d9b9,4,Size of yard,-1,600 square feet,0 square feet,direction,1315,,,,,2022-06-16 22:29:33,24186
61055aec08d0edfeb3d38a00,ma_choice_v4_observers_pilot1,61055aec08d0edfeb3d38a00,2,Reputation of closest school,74,,,wad_att_rating,6586,,,,,2022-06-16 22:29:34,24187
61055aec08d0edfeb3d38a00,ma_choice_v4_observers_pilot1,61055aec08d0edfeb3d38a00,7,Amount of traffic,13,,,wad_att_rating,5023,,,,,2022-06-16 22:29:39,24189
58a1fe40ea3d11000170d9b9,ma_choice_v4_observers_pilot1,58a1fe40ea3d11000170d9b9,1,Noise pollution,-1,Very Low,Very High,direction,2424,,,,,2022-06-16 22:29:44,24190
61055aec08d0edfeb3d38a00,ma_choice_v4_observers_pilot1,61055aec08d0edfeb3d38a00,0,Closeness to parks,75,,,wad_att_rating,5473,,,,,2022-06-16 22:29:45,24191
58a1fe40ea3d11000170d9b9,ma_choice_v4_observers_pilot1,58a1fe40ea3d11000170d9b9,7,Amount of traffic,-1,A Little,A Lot,direction,2879,,,,,2022-06-16 22:29:51,24194
61055aec08d0edfeb3d38a00,ma_choice_v4_observers_pilot1,61055aec08d0edfeb3d38a00,1,Noise pollution,0,,,wad_att_rating,7474,,,,,2022-06-16 22:29:52,24195
61055aec08d0edfeb3d38a00,ma_choice_v4_observers_pilot1,61055aec08d0edfeb3d38a00,8,Size of home,0,,,wad_att_rating,3002,,,,,2022-06-16 22:29:55,24196
61055aec08d0edfeb3d38a00,ma_choice_v4_observers_pilot1,61055aec08d0edfeb3d38a00,4,Size of yard,0,,,wad_att_rating,2605,,,,,2022-06-16 22:29:58,24197
58a1fe40ea3d11000170d9b9,ma_choice_v4_observers_pilot1,58a1fe40ea3d11000170d9b9,5,Quality of kitchen,-1,Very Good,Very Bad,direction,2820,,,,,2022-06-16 22:30:01,24198
61055aec08d0edfeb3d38a00,ma_choice_v4_observers_pilot1,61055aec08d0edfeb3d38a00,6,Quality of heat/AC system,0,,,wad_att_rating,5034,,,,,2022-06-16 22:30:03,24200
61055aec08d0edfeb3d38a00,ma_choice_v4_observers_pilot1,61055aec08d0edfeb3d38a00,3,Year building was built,0,,,wad_att_rating,4484,,,,,2022-06-16 22:30:07,24201
58a1fe40ea3d11000170d9b9,ma_choice_v4_observers_pilot1,58a1fe40ea3d11000170d9b9,3,Year building was built,-1,1950,2020,direction,1526,,,,,2022-06-16 22:30:08,24202
61055aec08d0edfeb3d38a00,ma_choice_v4_observers_pilot1,61055aec08d0edfeb3d38a00,5,Quality of kitchen,0,,,wad_att_rating,2513,,,,,2022-06-16 22:30:10,24203
61055aec08d0edfeb3d38a00,ma_choice_v4_observers_pilot1,61055aec08d0edfeb3d38a00,0,Reputation of closest school,1,,,ew_att_rating,10150,,,,,2022-06-16 22:30:27,24206
61055aec08d0edfeb3d38a00,ma_choice_v4_observers_pilot1,61055aec08d0edfeb3d38a00,0,Closeness to parks,1,,,ew_att_rating,10150,,,,,2022-06-16 22:30:27,24207
605e6f4f35800996a22ac0ab,ma_choice_v4_observers_pilot1,605e6f4f35800996a22ac0ab,5,Quality of kitchen,-1,Very Good,Very Bad,direction,6063,,,,,2022-06-16 22:30:31,24208
605e6f4f35800996a22ac0ab,ma_choice_v4_observers_pilot1,605e6f4f35800996a22ac0ab,0,Closeness to parks,-1,15 min away,30 min away,direction,3019,,,,,2022-06-16 22:30:47,24210
605e6f4f35800996a22ac0ab,ma_choice_v4_observers_pilot1,605e6f4f35800996a22ac0ab,1,Noise pollution,-1,Very Low,Very High,direction,2521,,,,,2022-06-16 22:30:57,24212
6074bfb81bc1c8cc50879ce4,ma_choice_v4_observers_pilot1,6074bfb81bc1c8cc50879ce4,1,Noise pollution,-1,Very Low,Low,direction,10298,,,,,2022-06-16 22:31:01,24213
605e6f4f35800996a22ac0ab,ma_choice_v4_observers_pilot1,605e6f4f35800996a22ac0ab,8,Size of home,-1,1200 square feet,1800 square feet,direction,6500,,,,,2022-06-16 22:31:12,24216
6074bfb81bc1c8cc50879ce4,ma_choice_v4_observers_pilot1,6074bfb81bc1c8cc50879ce4,3,Year building was built,-1,1985,1950,direction,6268,,,,,2022-06-16 22:31:21,24218
605e6f4f35800996a22ac0ab,ma_choice_v4_observers_pilot1,605e6f4f35800996a22ac0ab,6,Quality of heat/AC system,-1,Very Good,Very Bad,direction,2469,,,,,2022-06-16 22:31:23,24219
605e6f4f35800996a22ac0ab,ma_choice_v4_observers_pilot1,605e6f4f35800996a22ac0ab,7,Amount of traffic,-1,Very Little,A Lot,direction,2051,,,,,2022-06-16 22:31:32,24221
605e6f4f35800996a22ac0ab,ma_choice_v4_observers_pilot1,605e6f4f35800996a22ac0ab,4,Size of yard,-1,300 square feet,0 square feet,direction,2866,,,,,2022-06-16 22:31:40,24222
605e6f4f35800996a22ac0ab,ma_choice_v4_observers_pilot1,605e6f4f35800996a22ac0ab,3,Year building was built,-1,2020,1950,direction,2534,,,,,2022-06-16 22:31:49,24226
6074bfb81bc1c8cc50879ce4,ma_choice_v4_observers_pilot1,6074bfb81bc1c8cc50879ce4,2,Reputation of closest school,-1,Good,Moderate,direction,14163,,,,,2022-06-16 22:31:51,24227
605e6f4f35800996a22ac0ab,ma_choice_v4_observers_pilot1,605e6f4f35800996a22ac0ab,2,Reputation of closest school,-1,Good,Very Bad,direction,3300,,,,,2022-06-16 22:31:58,24229
6074bfb81bc1c8cc50879ce4,ma_choice_v4_observers_pilot1,6074bfb81bc1c8cc50879ce4,7,Amount of traffic,-1,A Moderate Amount,Very Little,direction,6951,,,,,2022-06-16 22:32:08,24233
6074bfb81bc1c8cc50879ce4,ma_choice_v4_observers_pilot1,6074bfb81bc1c8cc50879ce4,0,Closeness to parks,-1,10 min away,30 min away,direction,9739,,,,,2022-06-16 22:32:27,24235
6074bfb81bc1c8cc50879ce4,ma_choice_v4_observers_pilot1,6074bfb81bc1c8cc50879ce4,5,Quality of kitchen,-1,Good,Good,direction,7181,,,,,2022-06-16 22:32:45,24243
6074bfb81bc1c8cc50879ce4,ma_choice_v4_observers_pilot1,6074bfb81bc1c8cc50879ce4,6,Quality of heat/AC system,-1,Very Good,Moderate,direction,10099,,,,,2022-06-16 22:33:05,24249
6074bfb81bc1c8cc50879ce4,ma_choice_v4_observers_pilot1,6074bfb81bc1c8cc50879ce4,8,Size of home,-1,1800 square feet,600 square feet,direction,4164,,,,,2022-06-16 22:33:18,24255
6074bfb81bc1c8cc50879ce4,ma_choice_v4_observers_pilot1,6074bfb81bc1c8cc50879ce4,4,Size of yard,-1,600 square feet,0 square feet,direction,3339,,,,,2022-06-16 22:33:30,24260
6297ec4dbdefde1a517c92d5,ma_choice_v4_observers_pilot1,6297ec4dbdefde1a517c92d5,5,Quality of kitchen,-1,Good,Bad,direction,2375,,,,,2022-06-16 22:33:51,24269
6297ec4dbdefde1a517c92d5,ma_choice_v4_observers_pilot1,6297ec4dbdefde1a517c92d5,4,Size of yard,-1,300 square feet,0 square feet,direction,2570,,,,,2022-06-16 22:33:57,24270
6297ec4dbdefde1a517c92d5,ma_choice_v4_observers_pilot1,6297ec4dbdefde1a517c92d5,2,Reputation of closest school,-1,Good,Very Bad,direction,1704,,,,,2022-06-16 22:34:01,24273
6297ec4dbdefde1a517c92d5,ma_choice_v4_observers_pilot1,6297ec4dbdefde1a517c92d5,3,Year building was built,-1,1985,1950,direction,1278,,,,,2022-06-16 22:34:04,24274
6297ec4dbdefde1a517c92d5,ma_choice_v4_observers_pilot1,6297ec4dbdefde1a517c92d5,0,Closeness to parks,-1,25 min away,30 min away,direction,2115,,,,,2022-06-16 22:34:09,24277
6297ec4dbdefde1a517c92d5,ma_choice_v4_observers_pilot1,6297ec4dbdefde1a517c92d5,1,Noise pollution,-1,Moderate,Very High,direction,1867,,,,,2022-06-16 22:34:13,24278
6289f7ba725b22f93374725e,ma_choice_v4_observers_pilot1,6289f7ba725b22f93374725e,0,Reputation of closest school,1,,,lex_att_rating,8522,,,,,2022-06-16 22:34:16,24280
6297ec4dbdefde1a517c92d5,ma_choice_v4_observers_pilot1,6297ec4dbdefde1a517c92d5,6,Quality of heat/AC system,-1,Bad,Very Bad,direction,3487,,,,,2022-06-16 22:34:22,24281
6297ec4dbdefde1a517c92d5,ma_choice_v4_observers_pilot1,6297ec4dbdefde1a517c92d5,8,Size of home,-1,1200 square feet,600 square feet,direction,1326,,,,,2022-06-16 22:34:25,24284
6297ec4dbdefde1a517c92d5,ma_choice_v4_observers_pilot1,6297ec4dbdefde1a517c92d5,7,Amount of traffic,-1,A Moderate Amount,A Lot,direction,3059,,,,,2022-06-16 22:34:30,24286
6289f7ba725b22f93374725e,ma_choice_v4_observers_pilot1,6289f7ba725b22f93374725e,0,Reputation of closest school,1,,,ew_att_rating,15531,,,,,2022-06-16 22:34:43,24291
6289f7ba725b22f93374725e,ma_choice_v4_observers_pilot1,6289f7ba725b22f93374725e,0,Size of yard,1,,,ew_att_rating,15531,,,,,2022-06-16 22:34:43,24292
6289f7ba725b22f93374725e,ma_choice_v4_observers_pilot1,6289f7ba725b22f93374725e,0,Size of home,1,,,ew_att_rating,15531,,,,,2022-06-16 22:34:43,24293
61055aec08d0edfeb3d38a00,ma_choice_v4_observers_pilot1,61055aec08d0edfeb3d38a00,4,Size of yard,-1,300 square feet,600 square feet,direction,3232,,,,,2022-06-16 22:35:00,24298
6289f7ba725b22f93374725e,ma_choice_v4_observers_pilot1,6289f7ba725b22f93374725e,8,Size of home,12,,,wad_att_rating,13866,,,,,2022-06-16 22:35:05,24304
61055aec08d0edfeb3d38a00,ma_choice_v4_observers_pilot1,61055aec08d0edfeb3d38a00,8,Size of home,-1,1200 square feet,1800 square feet,direction,1948,,,,,2022-06-16 22:35:12,24306
6289f7ba725b22f93374725e,ma_choice_v4_observers_pilot1,6289f7ba725b22f93374725e,0,Closeness to parks,0,,,wad_att_rating,12164,,,,,2022-06-16 22:35:17,24309
61055aec08d0edfeb3d38a00,ma_choice_v4_observers_pilot1,61055aec08d0edfeb3d38a00,5,Quality of kitchen,-1,Moderate,Very Bad,direction,3154,,,,,2022-06-16 22:35:20,24311
6289f7ba725b22f93374725e,ma_choice_v4_observers_pilot1,6289f7ba725b22f93374725e,7,Amount of traffic,0,,,wad_att_rating,4025,,,,,2022-06-16 22:35:21,24312
6289f7ba725b22f93374725e,ma_choice_v4_observers_pilot1,6289f7ba725b22f93374725e,2,Reputation of closest school,93,,,wad_att_rating,8717,,,,,2022-06-16 22:35:29,24313
61055aec08d0edfeb3d38a00,ma_choice_v4_observers_pilot1,61055aec08d0edfeb3d38a00,7,Amount of traffic,-1,A Little,A Lot,direction,3454,,,,,2022-06-16 22:35:30,24314
6289f7ba725b22f93374725e,ma_choice_v4_observers_pilot1,6289f7ba725b22f93374725e,5,Quality of kitchen,0,,,wad_att_rating,4089,,,,,2022-06-16 22:35:34,24315
61055aec08d0edfeb3d38a00,ma_choice_v4_observers_pilot1,61055aec08d0edfeb3d38a00,2,Reputation of closest school,-1,Very Good,Very Bad,direction,2414,,,,,2022-06-16 22:35:37,24316
6289f7ba725b22f93374725e,ma_choice_v4_observers_pilot1,6289f7ba725b22f93374725e,3,Year building was built,0,,,wad_att_rating,5274,,,,,2022-06-16 22:35:39,24317
6289f7ba725b22f93374725e,ma_choice_v4_observers_pilot1,6289f7ba725b22f93374725e,6,Quality of heat/AC system,0,,,wad_att_rating,5002,,,,,2022-06-16 22:35:44,24319
61055aec08d0edfeb3d38a00,ma_choice_v4_observers_pilot1,61055aec08d0edfeb3d38a00,6,Quality of heat/AC system,-1,Very Good,Very Bad,direction,3203,,,,,2022-06-16 22:35:44,24320
6289f7ba725b22f93374725e,ma_choice_v4_observers_pilot1,6289f7ba725b22f93374725e,1,Noise pollution,0,,,wad_att_rating,4658,,,,,2022-06-16 22:35:49,24321
61055aec08d0edfeb3d38a00,ma_choice_v4_observers_pilot1,61055aec08d0edfeb3d38a00,0,Closeness to parks,-1,10 min away,30 min away,direction,2267,,,,,2022-06-16 22:35:50,24322
61055aec08d0edfeb3d38a00,ma_choice_v4_observers_pilot1,61055aec08d0edfeb3d38a00,3,Year building was built,-1,2020,1950,direction,2026,,,,,2022-06-16 22:35:56,24323
6289f7ba725b22f93374725e,ma_choice_v4_observers_pilot1,6289f7ba725b22f93374725e,4,Size of yard,25,,,wad_att_rating,11359,,,,,2022-06-16 22:36:00,24324
61055aec08d0edfeb3d38a00,ma_choice_v4_observers_pilot1,61055aec08d0edfeb3d38a00,1,Noise pollution,-1,Very Low,Very High,direction,2407,,,,,2022-06-16 22:36:02,24325
6289f7ba725b22f93374725e,ma_choice_v4_observers_pilot1,6289f7ba725b22f93374725e,0,Closeness to parks,-1,20 min away,30 min away,direction,4373,,,,,2022-06-16 22:38:26,24343
6289f7ba725b22f93374725e,ma_choice_v4_observers_pilot1,6289f7ba725b22f93374725e,3,Year building was built,-1,1985,1950,direction,2629,,,,,2022-06-16 22:38:41,24347
6289f7ba725b22f93374725e,ma_choice_v4_observers_pilot1,6289f7ba725b22f93374725e,4,Size of yard,-1,600 square feet,0 square feet,direction,3546,,,,,2022-06-16 22:38:51,24350
6289f7ba725b22f93374725e,ma_choice_v4_observers_pilot1,6289f7ba725b22f93374725e,1,Noise pollution,-1,Low,Very High,direction,3170,,,,,2022-06-16 22:38:58,24358
6289f7ba725b22f93374725e,ma_choice_v4_observers_pilot1,6289f7ba725b22f93374725e,6,Quality of heat/AC system,-1,Very Good,Very Bad,direction,2658,,,,,2022-06-16 22:39:08,24361
6289f7ba725b22f93374725e,ma_choice_v4_observers_pilot1,6289f7ba725b22f93374725e,8,Size of home,-1,1800 square feet,600 square feet,direction,5146,,,,,2022-06-16 22:39:18,24366
6289f7ba725b22f93374725e,ma_choice_v4_observers_pilot1,6289f7ba725b22f93374725e,7,Amount of traffic,-1,Very Little,A Lot,direction,2572,,,,,2022-06-16 22:39:28,24369
6289f7ba725b22f93374725e,ma_choice_v4_observers_pilot1,6289f7ba725b22f93374725e,2,Reputation of closest school,-1,Very Good,Very Bad,direction,2374,,,,,2022-06-16 22:39:36,24373
6289f7ba725b22f93374725e,ma_choice_v4_observers_pilot1,6289f7ba725b22f93374725e,5,Quality of kitchen,-1,Very Good,Very Bad,direction,2077,,,,,2022-06-16 22:39:42,24375
60234af7cf83b61b5d3a40ef,ma_choice_v4_observers_pilot1,60234af7cf83b61b5d3a40ef,0,Closeness to parks,0,,,wad_att_rating,2914,,,,,2022-06-16 22:46:38,24506
61021cd4ed7f1c2f86ac392e,ma_choice_v4_observers_pilot1,61021cd4ed7f1c2f86ac392e,0,Quality of heat/AC system,1,,,lex_att_rating,11416,,,,,2022-06-16 22:46:38,24507
60234af7cf83b61b5d3a40ef,ma_choice_v4_observers_pilot1,60234af7cf83b61b5d3a40ef,4,Size of yard,24,,,wad_att_rating,3484,,,,,2022-06-16 22:46:42,24508
60234af7cf83b61b5d3a40ef,ma_choice_v4_observers_pilot1,60234af7cf83b61b5d3a40ef,2,Reputation of closest school,0,,,wad_att_rating,1939,,,,,2022-06-16 22:46:44,24509
60234af7cf83b61b5d3a40ef,ma_choice_v4_observers_pilot1,60234af7cf83b61b5d3a40ef,5,Quality of kitchen,74,,,wad_att_rating,2409,,,,,2022-06-16 22:46:46,24510
60234af7cf83b61b5d3a40ef,ma_choice_v4_observers_pilot1,60234af7cf83b61b5d3a40ef,1,Noise pollution,13,,,wad_att_rating,3264,,,,,2022-06-16 22:46:49,24512
60234af7cf83b61b5d3a40ef,ma_choice_v4_observers_pilot1,60234af7cf83b61b5d3a40ef,3,Year building was built,100,,,wad_att_rating,3554,,,,,2022-06-16 22:46:53,24516
61021cd4ed7f1c2f86ac392e,ma_choice_v4_observers_pilot1,61021cd4ed7f1c2f86ac392e,0,Amount of traffic,1,,,ew_att_rating,15611,,,,,2022-06-16 22:46:55,24517
61021cd4ed7f1c2f86ac392e,ma_choice_v4_observers_pilot1,61021cd4ed7f1c2f86ac392e,0,Year building was built,1,,,ew_att_rating,15611,,,,,2022-06-16 22:46:55,24518
61021cd4ed7f1c2f86ac392e,ma_choice_v4_observers_pilot1,61021cd4ed7f1c2f86ac392e,0,Reputation of closest school,1,,,ew_att_rating,15611,,,,,2022-06-16 22:46:55,24519
61021cd4ed7f1c2f86ac392e,ma_choice_v4_observers_pilot1,61021cd4ed7f1c2f86ac392e,0,Quality of heat/AC system,1,,,ew_att_rating,15611,,,,,2022-06-16 22:46:55,24520
60234af7cf83b61b5d3a40ef,ma_choice_v4_observers_pilot1,60234af7cf83b61b5d3a40ef,6,Quality of heat/AC system,76,,,wad_att_rating,2590,,,,,2022-06-16 22:46:56,24521
60234af7cf83b61b5d3a40ef,ma_choice_v4_observers_pilot1,60234af7cf83b61b5d3a40ef,8,Size of home,37,,,wad_att_rating,2764,,,,,2022-06-16 22:46:58,24526
61021cd4ed7f1c2f86ac392e,ma_choice_v4_observers_pilot1,61021cd4ed7f1c2f86ac392e,6,Quality of heat/AC system,86,,,wad_att_rating,3922,,,,,2022-06-16 22:47:00,24528
60234af7cf83b61b5d3a40ef,ma_choice_v4_observers_pilot1,60234af7cf83b61b5d3a40ef,7,Amount of traffic,25,,,wad_att_rating,2299,,,,,2022-06-16 22:47:01,24529
61021cd4ed7f1c2f86ac392e,ma_choice_v4_observers_pilot1,61021cd4ed7f1c2f86ac392e,8,Size of home,62,,,wad_att_rating,3446,,,,,2022-06-16 22:47:04,24530
61021cd4ed7f1c2f86ac392e,ma_choice_v4_observers_pilot1,61021cd4ed7f1c2f86ac392e,4,Size of yard,50,,,wad_att_rating,2501,,,,,2022-06-16 22:47:06,24532
61021cd4ed7f1c2f86ac392e,ma_choice_v4_observers_pilot1,61021cd4ed7f1c2f86ac392e,7,Amount of traffic,75,,,wad_att_rating,2293,,,,,2022-06-16 22:47:09,24533
60234af7cf83b61b5d3a40ef,ma_choice_v4_observers_pilot1,60234af7cf83b61b5d3a40ef,0,Year building was built,1,,,lex_att_rating,5525,,,,,2022-06-16 22:47:10,24534
61021cd4ed7f1c2f86ac392e,ma_choice_v4_observers_pilot1,61021cd4ed7f1c2f86ac392e,3,Year building was built,63,,,wad_att_rating,2905,,,,,2022-06-16 22:47:12,24535
61021cd4ed7f1c2f86ac392e,ma_choice_v4_observers_pilot1,61021cd4ed7f1c2f86ac392e,2,Reputation of closest school,75,,,wad_att_rating,4497,,,,,2022-06-16 22:47:16,24538
61021cd4ed7f1c2f86ac392e,ma_choice_v4_observers_pilot1,61021cd4ed7f1c2f86ac392e,0,Closeness to parks,76,,,wad_att_rating,2386,,,,,2022-06-16 22:47:19,24539
61021cd4ed7f1c2f86ac392e,ma_choice_v4_observers_pilot1,61021cd4ed7f1c2f86ac392e,1,Noise pollution,60,,,wad_att_rating,2732,,,,,2022-06-16 22:47:21,24541
61021cd4ed7f1c2f86ac392e,ma_choice_v4_observers_pilot1,61021cd4ed7f1c2f86ac392e,5,Quality of kitchen,61,,,wad_att_rating,3059,,,,,2022-06-16 22:47:24,24543
60234af7cf83b61b5d3a40ef,ma_choice_v4_observers_pilot1,60234af7cf83b61b5d3a40ef,0,Quality of heat/AC system,1,,,ew_att_rating,15775,,,,,2022-06-16 22:47:30,24546
60234af7cf83b61b5d3a40ef,ma_choice_v4_observers_pilot1,60234af7cf83b61b5d3a40ef,0,Year building was built,1,,,ew_att_rating,15775,,,,,2022-06-16 22:47:30,24547
60234af7cf83b61b5d3a40ef,ma_choice_v4_observers_pilot1,60234af7cf83b61b5d3a40ef,0,Size of yard,1,,,ew_att_rating,15775,,,,,2022-06-16 22:47:30,24548
60234af7cf83b61b5d3a40ef,ma_choice_v4_observers_pilot1,60234af7cf83b61b5d3a40ef,0,Quality of kitchen,1,,,ew_att_rating,15775,,,,,2022-06-16 22:47:30,24549
61021cd4ed7f1c2f86ac392e,ma_choice_v4_observers_pilot1,61021cd4ed7f1c2f86ac392e,6,Quality of heat/AC system,-1,Very Good,Very Bad,direction,2685,,,,,2022-06-16 22:47:45,24559
61021cd4ed7f1c2f86ac392e,ma_choice_v4_observers_pilot1,61021cd4ed7f1c2f86ac392e,0,Closeness to parks,-1,15 min away,30 min away,direction,2824,,,,,2022-06-16 22:47:52,24562
61021cd4ed7f1c2f86ac392e,ma_choice_v4_observers_pilot1,61021cd4ed7f1c2f86ac392e,5,Quality of kitchen,-1,Good,Very Bad,direction,2365,,,,,2022-06-16 22:47:58,24566
61021cd4ed7f1c2f86ac392e,ma_choice_v4_observers_pilot1,61021cd4ed7f1c2f86ac392e,4,Size of yard,-1,300 square feet,0 square feet,direction,4195,,,,,2022-06-16 22:48:05,24568
60234af7cf83b61b5d3a40ef,ma_choice_v4_observers_pilot1,60234af7cf83b61b5d3a40ef,1,Noise pollution,-1,Moderate,Very Low,direction,3884,,,,,2022-06-16 22:48:07,24569
60234af7cf83b61b5d3a40ef,ma_choice_v4_observers_pilot1,60234af7cf83b61b5d3a40ef,4,Size of yard,-1,600 square feet,0 square feet,direction,1754,,,,,2022-06-16 22:48:12,24574
61021cd4ed7f1c2f86ac392e,ma_choice_v4_observers_pilot1,61021cd4ed7f1c2f86ac392e,7,Amount of traffic,-1,A Little,A Lot,direction,1806,,,,,2022-06-16 22:48:15,24575
60234af7cf83b61b5d3a40ef,ma_choice_v4_observers_pilot1,60234af7cf83b61b5d3a40ef,8,Size of home,-1,1200 square feet,600 square feet,direction,1739,,,,,2022-06-16 22:48:16,24576
60234af7cf83b61b5d3a40ef,ma_choice_v4_observers_pilot1,60234af7cf83b61b5d3a40ef,7,Amount of traffic,-1,A Moderate Amount,A Lot,direction,2845,,,,,2022-06-16 22:48:24,24581
60234af7cf83b61b5d3a40ef,ma_choice_v4_observers_pilot1,60234af7cf83b61b5d3a40ef,5,Quality of kitchen,-1,Good,Very Bad,direction,1534,,,,,2022-06-16 22:48:28,24582
60234af7cf83b61b5d3a40ef,ma_choice_v4_observers_pilot1,60234af7cf83b61b5d3a40ef,0,Closeness to parks,-1,15 min away,30 min away,direction,2398,,,,,2022-06-16 22:48:35,24589
61021cd4ed7f1c2f86ac392e,ma_choice_v4_observers_pilot1,61021cd4ed7f1c2f86ac392e,8,Size of home,-1,1200 square feet,600 square feet,direction,7732,,,,,2022-06-16 22:48:36,24590
60234af7cf83b61b5d3a40ef,ma_choice_v4_observers_pilot1,60234af7cf83b61b5d3a40ef,3,Year building was built,-1,2020,1950,direction,2334,,,,,2022-06-16 22:48:40,24591
61021cd4ed7f1c2f86ac392e,ma_choice_v4_observers_pilot1,61021cd4ed7f1c2f86ac392e,1,Noise pollution,-1,Moderate,Very Low,direction,2194,,,,,2022-06-16 22:48:42,24592
60234af7cf83b61b5d3a40ef,ma_choice_v4_observers_pilot1,60234af7cf83b61b5d3a40ef,2,Reputation of closest school,-1,Moderate,Moderate,direction,914,,,,,2022-06-16 22:48:43,24593
60234af7cf83b61b5d3a40ef,ma_choice_v4_observers_pilot1,60234af7cf83b61b5d3a40ef,6,Quality of heat/AC system,-1,Very Good,Very Bad,direction,3485,,,,,2022-06-16 22:48:49,24595
61021cd4ed7f1c2f86ac392e,ma_choice_v4_observers_pilot1,61021cd4ed7f1c2f86ac392e,3,Year building was built,-1,2020,1950,direction,1316,,,,,2022-06-16 22:48:55,24597
61021cd4ed7f1c2f86ac392e,ma_choice_v4_observers_pilot1,61021cd4ed7f1c2f86ac392e,2,Reputation of closest school,-1,Very Good,Very Bad,direction,1718,,,,,2022-06-16 22:48:59,24598
5fd9ad6dab00c64c8a45c9fc,ma_choice_v4_observers_pilot1,5fd9ad6dab00c64c8a45c9fc,0,Quality of heat/AC system,1,,,ew_att_rating,5241,,,,,2022-06-16 22:51:46,24649
5fd9ad6dab00c64c8a45c9fc,ma_choice_v4_observers_pilot1,5fd9ad6dab00c64c8a45c9fc,0,Quality of heat/AC system,1,,,lex_att_rating,5126,,,,,2022-06-16 22:51:57,24659
5fd9ad6dab00c64c8a45c9fc,ma_choice_v4_observers_pilot1,5fd9ad6dab00c64c8a45c9fc,0,Closeness to parks,12,,,wad_att_rating,6390,,,,,2022-06-16 22:52:13,24672
5fd9ad6dab00c64c8a45c9fc,ma_choice_v4_observers_pilot1,5fd9ad6dab00c64c8a45c9fc,3,Year building was built,13,,,wad_att_rating,6357,,,,,2022-06-16 22:52:19,24681
5fd9ad6dab00c64c8a45c9fc,ma_choice_v4_observers_pilot1,5fd9ad6dab00c64c8a45c9fc,7,Amount of traffic,13,,,wad_att_rating,4206,,,,,2022-06-16 22:52:23,24684
5fd9ad6dab00c64c8a45c9fc,ma_choice_v4_observers_pilot1,5fd9ad6dab00c64c8a45c9fc,4,Size of yard,12,,,wad_att_rating,5118,,,,,2022-06-16 22:52:28,24688
5fd9ad6dab00c64c8a45c9fc,ma_choice_v4_observers_pilot1,5fd9ad6dab00c64c8a45c9fc,1,Noise pollution,11,,,wad_att_rating,3213,,,,,2022-06-16 22:52:31,24690
5fd9ad6dab00c64c8a45c9fc,ma_choice_v4_observers_pilot1,5fd9ad6dab00c64c8a45c9fc,6,Quality of heat/AC system,100,,,wad_att_rating,6158,,,,,2022-06-16 22:52:38,24694
5fd9ad6dab00c64c8a45c9fc,ma_choice_v4_observers_pilot1,5fd9ad6dab00c64c8a45c9fc,8,Size of home,13,,,wad_att_rating,5958,,,,,2022-06-16 22:52:44,24696
5fd9ad6dab00c64c8a45c9fc,ma_choice_v4_observers_pilot1,5fd9ad6dab00c64c8a45c9fc,2,Reputation of closest school,10,,,wad_att_rating,3493,,,,,2022-06-16 22:52:47,24698
5fd9ad6dab00c64c8a45c9fc,ma_choice_v4_observers_pilot1,5fd9ad6dab00c64c8a45c9fc,5,Quality of kitchen,12,,,wad_att_rating,3598,,,,,2022-06-16 22:52:51,24700
61032f6952cf62247946939e,ma_choice_v4_observers_pilot1,61032f6952cf62247946939e,8,Size of home,75,,,wad_att_rating,7404,,,,,2022-06-16 22:53:45,24708
61032f6952cf62247946939e,ma_choice_v4_observers_pilot1,61032f6952cf62247946939e,7,Amount of traffic,13,,,wad_att_rating,4465,,,,,2022-06-16 22:53:50,24709
61032f6952cf62247946939e,ma_choice_v4_observers_pilot1,61032f6952cf62247946939e,3,Year building was built,0,,,wad_att_rating,6377,,,,,2022-06-16 22:53:56,24713
61032f6952cf62247946939e,ma_choice_v4_observers_pilot1,61032f6952cf62247946939e,2,Reputation of closest school,91,,,wad_att_rating,4216,,,,,2022-06-16 22:54:00,24714
61032f6952cf62247946939e,ma_choice_v4_observers_pilot1,61032f6952cf62247946939e,1,Noise pollution,8,,,wad_att_rating,4056,,,,,2022-06-16 22:54:04,24716
60933db5d42841d087283136,ma_choice_v4_observers_pilot1,60933db5d42841d087283136,0,Reputation of closest school,1,,,lex_att_rating,4591,,,,,2022-06-16 22:54:05,24717
61032f6952cf62247946939e,ma_choice_v4_observers_pilot1,61032f6952cf62247946939e,6,Quality of heat/AC system,76,,,wad_att_rating,4119,,,,,2022-06-16 22:54:09,24720
61032f6952cf62247946939e,ma_choice_v4_observers_pilot1,61032f6952cf62247946939e,4,Size of yard,0,,,wad_att_rating,3989,,,,,2022-06-16 22:54:13,24723
61032f6952cf62247946939e,ma_choice_v4_observers_pilot1,61032f6952cf62247946939e,0,Closeness to parks,10,,,wad_att_rating,4467,,,,,2022-06-16 22:54:17,24726
61032f6952cf62247946939e,ma_choice_v4_observers_pilot1,61032f6952cf62247946939e,5,Quality of kitchen,12,,,wad_att_rating,3198,,,,,2022-06-16 22:54:20,24729
5fd9ad6dab00c64c8a45c9fc,ma_choice_v4_observers_pilot1,5fd9ad6dab00c64c8a45c9fc,5,Quality of kitchen,-1,Bad,Very Bad,direction,6094,,,,,2022-06-16 22:54:31,24734
60933db5d42841d087283136,ma_choice_v4_observers_pilot1,60933db5d42841d087283136,1,Noise pollution,12,,,wad_att_rating,7959,,,,,2022-06-16 22:54:34,24735
61032f6952cf62247946939e,ma_choice_v4_observers_pilot1,61032f6952cf62247946939e,0,Size of home,1,,,ew_att_rating,9243,,,,,2022-06-16 22:54:35,24737
61032f6952cf62247946939e,ma_choice_v4_observers_pilot1,61032f6952cf62247946939e,0,Closeness to parks,1,,,ew_att_rating,9243,,,,,2022-06-16 22:54:35,24738
61032f6952cf62247946939e,ma_choice_v4_observers_pilot1,61032f6952cf62247946939e,0,Quality of heat/AC system,1,,,ew_att_rating,9243,,,,,2022-06-16 22:54:35,24739
5fd9ad6dab00c64c8a45c9fc,ma_choice_v4_observers_pilot1,5fd9ad6dab00c64c8a45c9fc,4,Size of yard,-1,300 square feet,300 square feet,direction,4166,,,,,2022-06-16 22:54:39,24742
60933db5d42841d087283136,ma_choice_v4_observers_pilot1,60933db5d42841d087283136,3,Year building was built,19,,,wad_att_rating,8189,,,,,2022-06-16 22:54:42,24745
61032f6952cf62247946939e,ma_choice_v4_observers_pilot1,61032f6952cf62247946939e,0,Reputation of closest school,1,,,lex_att_rating,3884,,,,,2022-06-16 22:54:42,24746
5fd9ad6dab00c64c8a45c9fc,ma_choice_v4_observers_pilot1,5fd9ad6dab00c64c8a45c9fc,2,Reputation of closest school,-1,Very Good,Bad,direction,4438,,,,,2022-06-16 22:54:51,24752
60933db5d42841d087283136,ma_choice_v4_observers_pilot1,60933db5d42841d087283136,5,Quality of kitchen,50,,,wad_att_rating,10058,,,,,2022-06-16 22:54:52,24753
60933db5d42841d087283136,ma_choice_v4_observers_pilot1,60933db5d42841d087283136,2,Reputation of closest school,87,,,wad_att_rating,6326,,,,,2022-06-16 22:54:58,24757
5fd9ad6dab00c64c8a45c9fc,ma_choice_v4_observers_pilot1,5fd9ad6dab00c64c8a45c9fc,1,Noise pollution,-1,Very Low,High,direction,3054,,,,,2022-06-16 22:55:01,24763
60933db5d42841d087283136,ma_choice_v4_observers_pilot1,60933db5d42841d087283136,0,Closeness to parks,24,,,wad_att_rating,8239,,,,,2022-06-16 22:55:07,24765
5fd9ad6dab00c64c8a45c9fc,ma_choice_v4_observers_pilot1,5fd9ad6dab00c64c8a45c9fc,6,Quality of heat/AC system,-1,Very Good,Very Bad,direction,8798,,,,,2022-06-16 22:55:14,24767
60933db5d42841d087283136,ma_choice_v4_observers_pilot1,60933db5d42841d087283136,6,Quality of heat/AC system,49,,,wad_att_rating,12549,,,,,2022-06-16 22:55:19,24768
5fd9ad6dab00c64c8a45c9fc,ma_choice_v4_observers_pilot1,5fd9ad6dab00c64c8a45c9fc,7,Amount of traffic,-1,Very Little,A Lot,direction,2742,,,,,2022-06-16 22:55:21,24769
60933db5d42841d087283136,ma_choice_v4_observers_pilot1,60933db5d42841d087283136,7,Amount of traffic,18,,,wad_att_rating,7836,,,,,2022-06-16 22:55:27,24770
5fd9ad6dab00c64c8a45c9fc,ma_choice_v4_observers_pilot1,5fd9ad6dab00c64c8a45c9fc,3,Year building was built,-1,1985,1950,direction,1990,,,,,2022-06-16 22:55:31,24772
60933db5d42841d087283136,ma_choice_v4_observers_pilot1,60933db5d42841d087283136,4,Size of yard,34,,,wad_att_rating,11689,,,,,2022-06-16 22:55:39,24773
5fd9ad6dab00c64c8a45c9fc,ma_choice_v4_observers_pilot1,5fd9ad6dab00c64c8a45c9fc,0,Closeness to parks,-1,10 min away,30 min away,direction,2446,,,,,2022-06-16 22:55:40,24774
60933db5d42841d087283136,ma_choice_v4_observers_pilot1,60933db5d42841d087283136,8,Size of home,65,,,wad_att_rating,6948,,,,,2022-06-16 22:55:46,24775
61032f6952cf62247946939e,ma_choice_v4_observers_pilot1,61032f6952cf62247946939e,0,Closeness to parks,-1,25 min away,30 min away,direction,5304,,,,,2022-06-16 22:55:47,24779
5fd9ad6dab00c64c8a45c9fc,ma_choice_v4_observers_pilot1,5fd9ad6dab00c64c8a45c9fc,8,Size of home,-1,1800 square feet,600 square feet,direction,2750,,,,,2022-06-16 22:55:47,24780
61032f6952cf62247946939e,ma_choice_v4_observers_pilot1,61032f6952cf62247946939e,2,Reputation of closest school,-1,Very Good,Very Bad,direction,2705,,,,,2022-06-16 22:55:58,24781
61032f6952cf62247946939e,ma_choice_v4_observers_pilot1,61032f6952cf62247946939e,8,Size of home,-1,1800 square feet,600 square feet,direction,1865,,,,,2022-06-16 22:56:03,24782
61032f6952cf62247946939e,ma_choice_v4_observers_pilot1,61032f6952cf62247946939e,6,Quality of heat/AC system,-1,Very Good,Very Bad,direction,1844,,,,,2022-06-16 22:56:10,24785
61032f6952cf62247946939e,ma_choice_v4_observers_pilot1,61032f6952cf62247946939e,7,Amount of traffic,-1,A Little,A Lot,direction,2254,,,,,2022-06-16 22:56:18,24786
61032f6952cf62247946939e,ma_choice_v4_observers_pilot1,61032f6952cf62247946939e,4,Size of yard,-1,600 square feet,0 square feet,direction,1795,,,,,2022-06-16 22:56:24,24788
61032f6952cf62247946939e,ma_choice_v4_observers_pilot1,61032f6952cf62247946939e,3,Year building was built,-1,1985,1950,direction,1528,,,,,2022-06-16 22:56:32,24792
61032f6952cf62247946939e,ma_choice_v4_observers_pilot1,61032f6952cf62247946939e,1,Noise pollution,-1,Very Low,Very High,direction,1675,,,,,2022-06-16 22:56:38,24793
61032f6952cf62247946939e,ma_choice_v4_observers_pilot1,61032f6952cf62247946939e,5,Quality of kitchen,-1,Good,Very Bad,direction,1779,,,,,2022-06-16 22:56:42,24795
60933db5d42841d087283136,ma_choice_v4_observers_pilot1,60933db5d42841d087283136,0,Reputation of closest school,1,,,ew_att_rating,44331,,,,,2022-06-16 22:56:50,24796
60933db5d42841d087283136,ma_choice_v4_observers_pilot1,60933db5d42841d087283136,0,Size of yard,1,,,ew_att_rating,44331,,,,,2022-06-16 22:56:50,24797
60933db5d42841d087283136,ma_choice_v4_observers_pilot1,60933db5d42841d087283136,0,Quality of kitchen,1,,,ew_att_rating,44331,,,,,2022-06-16 22:56:50,24798
60933db5d42841d087283136,ma_choice_v4_observers_pilot1,60933db5d42841d087283136,0,Quality of heat/AC system,1,,,ew_att_rating,44331,,,,,2022-06-16 22:56:50,24799
60933db5d42841d087283136,ma_choice_v4_observers_pilot1,60933db5d42841d087283136,0,Size of home,1,,,ew_att_rating,44331,,,,,2022-06-16 22:56:50,24800
614567082fec2310a398592e,ma_choice_v4_observers_pilot1,614567082fec2310a398592e,0,Reputation of closest school,1,,,lex_att_rating,5919,,,,,2022-06-16 22:58:01,24839
60933db5d42841d087283136,ma_choice_v4_observers_pilot1,60933db5d42841d087283136,3,Year building was built,-1,2020,1950,direction,3484,,,,,2022-06-16 23:00:22,24875
60933db5d42841d087283136,ma_choice_v4_observers_pilot1,60933db5d42841d087283136,2,Reputation of closest school,-1,Very Good,Very Bad,direction,6122,,,,,2022-06-16 23:00:39,24879
60933db5d42841d087283136,ma_choice_v4_observers_pilot1,60933db5d42841d087283136,1,Noise pollution,-1,Low,Very High,direction,5659,,,,,2022-06-16 23:00:59,24883
60933db5d42841d087283136,ma_choice_v4_observers_pilot1,60933db5d42841d087283136,6,Quality of heat/AC system,-1,Very Good,Very Bad,direction,3484,,,,,2022-06-16 23:01:15,24885
60933db5d42841d087283136,ma_choice_v4_observers_pilot1,60933db5d42841d087283136,5,Quality of kitchen,-1,Very Good,Very Bad,direction,5345,,,,,2022-06-16 23:01:23,24889
60933db5d42841d087283136,ma_choice_v4_observers_pilot1,60933db5d42841d087283136,0,Closeness to parks,-1,10 min away,25 min away,direction,8369,,,,,2022-06-16 23:01:45,24893
60933db5d42841d087283136,ma_choice_v4_observers_pilot1,60933db5d42841d087283136,7,Amount of traffic,-1,A Moderate Amount,A Lot,direction,5746,,,,,2022-06-16 23:02:01,24898
60933db5d42841d087283136,ma_choice_v4_observers_pilot1,60933db5d42841d087283136,8,Size of home,-1,1800 square feet,600 square feet,direction,2402,,,,,2022-06-16 23:02:08,24899
60933db5d42841d087283136,ma_choice_v4_observers_pilot1,60933db5d42841d087283136,4,Size of yard,-1,600 square feet,0 square feet,direction,2136,,,,,2022-06-16 23:02:21,24902
628e55a8f9ad59c287bc542d,ma_choice_v4_observers_pilot1,628e55a8f9ad59c287bc542d,0,Noise pollution,1,,,ew_att_rating,27309,,,,,2022-06-16 23:03:29,24911
628e55a8f9ad59c287bc542d,ma_choice_v4_observers_pilot1,628e55a8f9ad59c287bc542d,0,Quality of heat/AC system,1,,,ew_att_rating,27309,,,,,2022-06-16 23:03:29,24912
628e55a8f9ad59c287bc542d,ma_choice_v4_observers_pilot1,628e55a8f9ad59c287bc542d,0,Quality of kitchen,1,,,ew_att_rating,27309,,,,,2022-06-16 23:03:29,24913
628e55a8f9ad59c287bc542d,ma_choice_v4_observers_pilot1,628e55a8f9ad59c287bc542d,0,Size of home,1,,,ew_att_rating,27309,,,,,2022-06-16 23:03:29,24914
628e55a8f9ad59c287bc542d,ma_choice_v4_observers_pilot1,628e55a8f9ad59c287bc542d,0,Amount of traffic,1,,,ew_att_rating,27309,,,,,2022-06-16 23:03:29,24915
628e55a8f9ad59c287bc542d,ma_choice_v4_observers_pilot1,628e55a8f9ad59c287bc542d,0,Closeness to parks,1,,,wad_att_rating,6582,,,,,2022-06-16 23:03:56,24918
628e55a8f9ad59c287bc542d,ma_choice_v4_observers_pilot1,628e55a8f9ad59c287bc542d,3,Year building was built,14,,,wad_att_rating,7877,,,,,2022-06-16 23:04:04,24920
60edf5baeda27703883525c6,ma_choice_v4_observers_pilot1,60edf5baeda27703883525c6,0,Size of home,1,,,ew_att_rating,12355,,,,,2022-06-16 23:04:06,24922
60edf5baeda27703883525c6,ma_choice_v4_observers_pilot1,60edf5baeda27703883525c6,0,Amount of traffic,1,,,ew_att_rating,12355,,,,,2022-06-16 23:04:06,24923
60edf5baeda27703883525c6,ma_choice_v4_observers_pilot1,60edf5baeda27703883525c6,0,Reputation of closest school,1,,,ew_att_rating,12355,,,,,2022-06-16 23:04:06,24924
60edf5baeda27703883525c6,ma_choice_v4_observers_pilot1,60edf5baeda27703883525c6,0,Year building was built,1,,,ew_att_rating,12355,,,,,2022-06-16 23:04:06,24925
60edf5baeda27703883525c6,ma_choice_v4_observers_pilot1,60edf5baeda27703883525c6,0,Quality of heat/AC system,1,,,ew_att_rating,12355,,,,,2022-06-16 23:04:06,24926
60edf5baeda27703883525c6,ma_choice_v4_observers_pilot1,60edf5baeda27703883525c6,0,Quality of kitchen,1,,,ew_att_rating,12355,,,,,2022-06-16 23:04:06,24927
60edf5baeda27703883525c6,ma_choice_v4_observers_pilot1,60edf5baeda27703883525c6,0,Noise pollution,1,,,ew_att_rating,12355,,,,,2022-06-16 23:04:06,24928
60edf5baeda27703883525c6,ma_choice_v4_observers_pilot1,60edf5baeda27703883525c6,0,Size of yard,1,,,ew_att_rating,12355,,,,,2022-06-16 23:04:06,24929
60edf5baeda27703883525c6,ma_choice_v4_observers_pilot1,60edf5baeda27703883525c6,0,Closeness to parks,1,,,ew_att_rating,12355,,,,,2022-06-16 23:04:06,24930
628e55a8f9ad59c287bc542d,ma_choice_v4_observers_pilot1,628e55a8f9ad59c287bc542d,4,Size of yard,11,,,wad_att_rating,5949,,,,,2022-06-16 23:04:10,24931
60edf5baeda27703883525c6,ma_choice_v4_observers_pilot1,60edf5baeda27703883525c6,7,Amount of traffic,45,,,wad_att_rating,5288,,,,,2022-06-16 23:04:13,24932
628e55a8f9ad59c287bc542d,ma_choice_v4_observers_pilot1,628e55a8f9ad59c287bc542d,2,Reputation of closest school,2,,,wad_att_rating,4101,,,,,2022-06-16 23:04:14,24935
60edf5baeda27703883525c6,ma_choice_v4_observers_pilot1,60edf5baeda27703883525c6,4,Size of yard,63,,,wad_att_rating,2080,,,,,2022-06-16 23:04:15,24936
60edf5baeda27703883525c6,ma_choice_v4_observers_pilot1,60edf5baeda27703883525c6,0,Closeness to parks,64,,,wad_att_rating,1964,,,,,2022-06-16 23:04:17,24937
60edf5baeda27703883525c6,ma_choice_v4_observers_pilot1,60edf5baeda27703883525c6,6,Quality of heat/AC system,37,,,wad_att_rating,1690,,,,,2022-06-16 23:04:18,24938
628e55a8f9ad59c287bc542d,ma_choice_v4_observers_pilot1,628e55a8f9ad59c287bc542d,5,Quality of kitchen,50,,,wad_att_rating,4486,,,,,2022-06-16 23:04:19,24939
60edf5baeda27703883525c6,ma_choice_v4_observers_pilot1,60edf5baeda27703883525c6,1,Noise pollution,42,,,wad_att_rating,1622,,,,,2022-06-16 23:04:20,24940
60edf5baeda27703883525c6,ma_choice_v4_observers_pilot1,60edf5baeda27703883525c6,5,Quality of kitchen,43,,,wad_att_rating,1742,,,,,2022-06-16 23:04:22,24942
628e55a8f9ad59c287bc542d,ma_choice_v4_observers_pilot1,628e55a8f9ad59c287bc542d,7,Amount of traffic,67,,,wad_att_rating,6638,,,,,2022-06-16 23:04:26,24943
60edf5baeda27703883525c6,ma_choice_v4_observers_pilot1,60edf5baeda27703883525c6,3,Year building was built,14,,,wad_att_rating,5146,,,,,2022-06-16 23:04:27,24944
60edf5baeda27703883525c6,ma_choice_v4_observers_pilot1,60edf5baeda27703883525c6,8,Size of home,75,,,wad_att_rating,1739,,,,,2022-06-16 23:04:29,24945
628e55a8f9ad59c287bc542d,ma_choice_v4_observers_pilot1,628e55a8f9ad59c287bc542d,1,Noise pollution,67,,,wad_att_rating,4638,,,,,2022-06-16 23:04:30,24947
60edf5baeda27703883525c6,ma_choice_v4_observers_pilot1,60edf5baeda27703883525c6,2,Reputation of closest school,45,,,wad_att_rating,3549,,,,,2022-06-16 23:04:32,24949
628e55a8f9ad59c287bc542d,ma_choice_v4_observers_pilot1,628e55a8f9ad59c287bc542d,8,Size of home,74,,,wad_att_rating,5278,,,,,2022-06-16 23:04:35,24950
628e55a8f9ad59c287bc542d,ma_choice_v4_observers_pilot1,628e55a8f9ad59c287bc542d,6,Quality of heat/AC system,76,,,wad_att_rating,4062,,,,,2022-06-16 23:04:40,24957
60edf5baeda27703883525c6,ma_choice_v4_observers_pilot1,60edf5baeda27703883525c6,0,Size of yard,1,,,lex_att_rating,6448,,,,,2022-06-16 23:04:40,24958
60edf5baeda27703883525c6,ma_choice_v4_observers_pilot1,60edf5baeda27703883525c6,8,Size of home,-1,1800 square feet,600 square feet,direction,2012,,,,,2022-06-16 23:04:53,24961
60edf5baeda27703883525c6,ma_choice_v4_observers_pilot1,60edf5baeda27703883525c6,1,Noise pollution,-1,Low,Very High,direction,2013,,,,,2022-06-16 23:04:57,24964
60edf5baeda27703883525c6,ma_choice_v4_observers_pilot1,60edf5baeda27703883525c6,5,Quality of kitchen,-1,Good,Very Bad,direction,1695,,,,,2022-06-16 23:05:02,24966
60edf5baeda27703883525c6,ma_choice_v4_observers_pilot1,60edf5baeda27703883525c6,6,Quality of heat/AC system,-1,Good,Very Bad,direction,737,,,,,2022-06-16 23:05:05,24969
60edf5baeda27703883525c6,ma_choice_v4_observers_pilot1,60edf5baeda27703883525c6,3,Year building was built,-1,1985,1950,direction,1385,,,,,2022-06-16 23:05:12,24972
60edf5baeda27703883525c6,ma_choice_v4_observers_pilot1,60edf5baeda27703883525c6,0,Closeness to parks,-1,15 min away,30 min away,direction,1687,,,,,2022-06-16 23:05:16,24974
60edf5baeda27703883525c6,ma_choice_v4_observers_pilot1,60edf5baeda27703883525c6,4,Size of yard,-1,600 square feet,0 square feet,direction,1163,,,,,2022-06-16 23:05:18,24976
628e55a8f9ad59c287bc542d,ma_choice_v4_observers_pilot1,628e55a8f9ad59c287bc542d,0,Quality of heat/AC system,1,,,lex_att_rating,30871,,,,,2022-06-16 23:05:20,24977
60edf5baeda27703883525c6,ma_choice_v4_observers_pilot1,60edf5baeda27703883525c6,2,Reputation of closest school,-1,Bad,Good,direction,1326,,,,,2022-06-16 23:05:21,24979
60edf5baeda27703883525c6,ma_choice_v4_observers_pilot1,60edf5baeda27703883525c6,7,Amount of traffic,-1,A Little,A Moderate Amount,direction,1088,,,,,2022-06-16 23:05:23,24980
628e55a8f9ad59c287bc542d,ma_choice_v4_observers_pilot1,628e55a8f9ad59c287bc542d,0,Closeness to parks,-1,10 min away,30 min away,direction,4262,,,,,2022-06-16 23:08:10,25013
628e55a8f9ad59c287bc542d,ma_choice_v4_observers_pilot1,628e55a8f9ad59c287bc542d,1,Noise pollution,-1,Very Low,Very High,direction,2703,,,,,2022-06-16 23:08:20,25015
628e55a8f9ad59c287bc542d,ma_choice_v4_observers_pilot1,628e55a8f9ad59c287bc542d,2,Reputation of closest school,-1,Very Good,Very Bad,direction,4534,,,,,2022-06-16 23:08:38,25016
628e55a8f9ad59c287bc542d,ma_choice_v4_observers_pilot1,628e55a8f9ad59c287bc542d,3,Year building was built,-1,1950,1985,direction,6222,,,,,2022-06-16 23:09:07,25017
628e55a8f9ad59c287bc542d,ma_choice_v4_observers_pilot1,628e55a8f9ad59c287bc542d,6,Quality of heat/AC system,-1,Very Good,Very Bad,direction,2998,,,,,2022-06-16 23:09:19,25018
628e55a8f9ad59c287bc542d,ma_choice_v4_observers_pilot1,628e55a8f9ad59c287bc542d,4,Size of yard,-1,300 square feet,600 square feet,direction,6543,,,,,2022-06-16 23:09:44,25019
628e55a8f9ad59c287bc542d,ma_choice_v4_observers_pilot1,628e55a8f9ad59c287bc542d,5,Quality of kitchen,-1,Very Good,Very Bad,direction,2327,,,,,2022-06-16 23:09:54,25020
628e55a8f9ad59c287bc542d,ma_choice_v4_observers_pilot1,628e55a8f9ad59c287bc542d,8,Size of home,-1,1200 square feet,600 square feet,direction,2399,,,,,2022-06-16 23:10:14,25021
628e55a8f9ad59c287bc542d,ma_choice_v4_observers_pilot1,628e55a8f9ad59c287bc542d,7,Amount of traffic,-1,Very Little,A Lot,direction,1991,,,,,2022-06-16 23:10:27,25022
6065236647732825e997d2f6,ma_choice_v4_observers_pilot1,6065236647732825e997d2f6,0,Size of home,1,,,lex_att_rating,5617,,,,,2022-06-16 23:11:13,25023
6065236647732825e997d2f6,ma_choice_v4_observers_pilot1,6065236647732825e997d2f6,1,Noise pollution,25,,,wad_att_rating,4230,,,,,2022-06-16 23:11:21,25024
6065236647732825e997d2f6,ma_choice_v4_observers_pilot1,6065236647732825e997d2f6,5,Quality of kitchen,50,,,wad_att_rating,2769,,,,,2022-06-16 23:11:24,25025
6065236647732825e997d2f6,ma_choice_v4_observers_pilot1,6065236647732825e997d2f6,3,Year building was built,21,,,wad_att_rating,2482,,,,,2022-06-16 23:11:26,25026
6065236647732825e997d2f6,ma_choice_v4_observers_pilot1,6065236647732825e997d2f6,4,Size of yard,6,,,wad_att_rating,2340,,,,,2022-06-16 23:11:29,25027
6065236647732825e997d2f6,ma_choice_v4_observers_pilot1,6065236647732825e997d2f6,2,Reputation of closest school,66,,,wad_att_rating,2840,,,,,2022-06-16 23:11:31,25028
6065236647732825e997d2f6,ma_choice_v4_observers_pilot1,6065236647732825e997d2f6,7,Amount of traffic,53,,,wad_att_rating,4590,,,,,2022-06-16 23:11:36,25029
6065236647732825e997d2f6,ma_choice_v4_observers_pilot1,6065236647732825e997d2f6,0,Closeness to parks,38,,,wad_att_rating,2681,,,,,2022-06-16 23:11:39,25030
6065236647732825e997d2f6,ma_choice_v4_observers_pilot1,6065236647732825e997d2f6,8,Size of home,76,,,wad_att_rating,2591,,,,,2022-06-16 23:11:41,25031
6065236647732825e997d2f6,ma_choice_v4_observers_pilot1,6065236647732825e997d2f6,6,Quality of heat/AC system,51,,,wad_att_rating,2411,,,,,2022-06-16 23:11:44,25032
6065236647732825e997d2f6,ma_choice_v4_observers_pilot1,6065236647732825e997d2f6,0,Size of home,1,,,ew_att_rating,11549,,,,,2022-06-16 23:12:04,25033
6065236647732825e997d2f6,ma_choice_v4_observers_pilot1,6065236647732825e997d2f6,0,Reputation of closest school,1,,,ew_att_rating,11549,,,,,2022-06-16 23:12:04,25034
6065236647732825e997d2f6,ma_choice_v4_observers_pilot1,6065236647732825e997d2f6,0,Quality of kitchen,1,,,ew_att_rating,11549,,,,,2022-06-16 23:12:04,25035
6065236647732825e997d2f6,ma_choice_v4_observers_pilot1,6065236647732825e997d2f6,0,Quality of heat/AC system,1,,,ew_att_rating,11549,,,,,2022-06-16 23:12:04,25036
6065236647732825e997d2f6,ma_choice_v4_observers_pilot1,6065236647732825e997d2f6,6,Quality of heat/AC system,-1,Very Good,Very Bad,direction,2129,,,,,2022-06-16 23:13:02,25040
6065236647732825e997d2f6,ma_choice_v4_observers_pilot1,6065236647732825e997d2f6,3,Year building was built,-1,1985,1950,direction,3700,,,,,2022-06-16 23:13:10,25043
6065236647732825e997d2f6,ma_choice_v4_observers_pilot1,6065236647732825e997d2f6,7,Amount of traffic,-1,A Moderate Amount,A Lot,direction,2454,,,,,2022-06-16 23:13:19,25044
6065236647732825e997d2f6,ma_choice_v4_observers_pilot1,6065236647732825e997d2f6,2,Reputation of closest school,-1,Very Good,Very Bad,direction,2260,,,,,2022-06-16 23:13:24,25046
6065236647732825e997d2f6,ma_choice_v4_observers_pilot1,6065236647732825e997d2f6,8,Size of home,-1,1200 square feet,600 square feet,direction,2242,,,,,2022-06-16 23:13:31,25049
6065236647732825e997d2f6,ma_choice_v4_observers_pilot1,6065236647732825e997d2f6,1,Noise pollution,-1,Very Low,Very High,direction,1420,,,,,2022-06-16 23:13:35,25051
6065236647732825e997d2f6,ma_choice_v4_observers_pilot1,6065236647732825e997d2f6,5,Quality of kitchen,-1,Very Good,Very Bad,direction,1601,,,,,2022-06-16 23:13:40,25053
6065236647732825e997d2f6,ma_choice_v4_observers_pilot1,6065236647732825e997d2f6,0,Closeness to parks,-1,15 min away,30 min away,direction,1827,,,,,2022-06-16 23:13:44,25054
6065236647732825e997d2f6,ma_choice_v4_observers_pilot1,6065236647732825e997d2f6,4,Size of yard,-1,600 square feet,0 square feet,direction,1263,,,,,2022-06-16 23:13:49,25060
5ede9b80b8a141131edabbe1,ma_choice_v4_observers_pilot1,5ede9b80b8a141131edabbe1,0,Noise pollution,1,,,ew_att_rating,19505,,,,,2022-06-16 23:16:39,25101
5ede9b80b8a141131edabbe1,ma_choice_v4_observers_pilot1,5ede9b80b8a141131edabbe1,0,Amount of traffic,1,,,ew_att_rating,19505,,,,,2022-06-16 23:16:39,25102
5ede9b80b8a141131edabbe1,ma_choice_v4_observers_pilot1,5ede9b80b8a141131edabbe1,0,Reputation of closest school,1,,,ew_att_rating,19505,,,,,2022-06-16 23:16:39,25103
5ede9b80b8a141131edabbe1,ma_choice_v4_observers_pilot1,5ede9b80b8a141131edabbe1,0,Size of home,1,,,ew_att_rating,19505,,,,,2022-06-16 23:16:39,25104
5ede9b80b8a141131edabbe1,ma_choice_v4_observers_pilot1,5ede9b80b8a141131edabbe1,0,Noise pollution,1,,,lex_att_rating,17488,,,,,2022-06-16 23:17:05,25115
5ede9b80b8a141131edabbe1,ma_choice_v4_observers_pilot1,5ede9b80b8a141131edabbe1,2,Reputation of closest school,50,,,wad_att_rating,5764,,,,,2022-06-16 23:17:16,25117
5ede9b80b8a141131edabbe1,ma_choice_v4_observers_pilot1,5ede9b80b8a141131edabbe1,6,Quality of heat/AC system,50,,,wad_att_rating,4498,,,,,2022-06-16 23:17:21,25118
5ede9b80b8a141131edabbe1,ma_choice_v4_observers_pilot1,5ede9b80b8a141131edabbe1,0,Closeness to parks,37,,,wad_att_rating,4620,,,,,2022-06-16 23:17:25,25119
5ede9b80b8a141131edabbe1,ma_choice_v4_observers_pilot1,5ede9b80b8a141131edabbe1,1,Noise pollution,74,,,wad_att_rating,4023,,,,,2022-06-16 23:17:29,25120
5ede9b80b8a141131edabbe1,ma_choice_v4_observers_pilot1,5ede9b80b8a141131edabbe1,8,Size of home,87,,,wad_att_rating,6555,,,,,2022-06-16 23:17:36,25121
5ede9b80b8a141131edabbe1,ma_choice_v4_observers_pilot1,5ede9b80b8a141131edabbe1,4,Size of yard,60,,,wad_att_rating,4933,,,,,2022-06-16 23:17:41,25122
5ede9b80b8a141131edabbe1,ma_choice_v4_observers_pilot1,5ede9b80b8a141131edabbe1,7,Amount of traffic,77,,,wad_att_rating,3658,,,,,2022-06-16 23:17:44,25123
5ede9b80b8a141131edabbe1,ma_choice_v4_observers_pilot1,5ede9b80b8a141131edabbe1,5,Quality of kitchen,71,,,wad_att_rating,5209,,,,,2022-06-16 23:17:49,25124
5ede9b80b8a141131edabbe1,ma_choice_v4_observers_pilot1,5ede9b80b8a141131edabbe1,3,Year building was built,13,,,wad_att_rating,4635,,,,,2022-06-16 23:17:54,25125
5c5676fd9fcbc40001dc603b,ma_choice_v4_observers_pilot1,5c5676fd9fcbc40001dc603b,0,Quality of kitchen,1,,,lex_att_rating,9470,,,,,2022-06-16 23:18:44,25129
5c5676fd9fcbc40001dc603b,ma_choice_v4_observers_pilot1,5c5676fd9fcbc40001dc603b,5,Quality of kitchen,75,,,wad_att_rating,7813,,,,,2022-06-16 23:18:56,25135
5c5676fd9fcbc40001dc603b,ma_choice_v4_observers_pilot1,5c5676fd9fcbc40001dc603b,1,Noise pollution,12,,,wad_att_rating,4796,,,,,2022-06-16 23:19:01,25137
5c5676fd9fcbc40001dc603b,ma_choice_v4_observers_pilot1,5c5676fd9fcbc40001dc603b,8,Size of home,13,,,wad_att_rating,8357,,,,,2022-06-16 23:19:09,25142
5c5676fd9fcbc40001dc603b,ma_choice_v4_observers_pilot1,5c5676fd9fcbc40001dc603b,2,Reputation of closest school,12,,,wad_att_rating,3853,,,,,2022-06-16 23:19:13,25144
5c5676fd9fcbc40001dc603b,ma_choice_v4_observers_pilot1,5c5676fd9fcbc40001dc603b,3,Year building was built,25,,,wad_att_rating,5429,,,,,2022-06-16 23:19:19,25145
5c5676fd9fcbc40001dc603b,ma_choice_v4_observers_pilot1,5c5676fd9fcbc40001dc603b,0,Closeness to parks,25,,,wad_att_rating,8301,,,,,2022-06-16 23:19:27,25150
5c5676fd9fcbc40001dc603b,ma_choice_v4_observers_pilot1,5c5676fd9fcbc40001dc603b,4,Size of yard,13,,,wad_att_rating,11253,,,,,2022-06-16 23:19:38,25155
5c5676fd9fcbc40001dc603b,ma_choice_v4_observers_pilot1,5c5676fd9fcbc40001dc603b,7,Amount of traffic,2,,,wad_att_rating,7469,,,,,2022-06-16 23:19:46,25157
5c5676fd9fcbc40001dc603b,ma_choice_v4_observers_pilot1,5c5676fd9fcbc40001dc603b,6,Quality of heat/AC system,74,,,wad_att_rating,3565,,,,,2022-06-16 23:19:49,25159
5c5676fd9fcbc40001dc603b,ma_choice_v4_observers_pilot1,5c5676fd9fcbc40001dc603b,0,Quality of kitchen,1,,,ew_att_rating,12603,,,,,2022-06-16 23:20:13,25162
5c5676fd9fcbc40001dc603b,ma_choice_v4_observers_pilot1,5c5676fd9fcbc40001dc603b,0,Quality of heat/AC system,1,,,ew_att_rating,12603,,,,,2022-06-16 23:20:13,25163
5c5676fd9fcbc40001dc603b,ma_choice_v4_observers_pilot1,5c5676fd9fcbc40001dc603b,6,Quality of heat/AC system,-1,Very Good,Very Bad,direction,5462,,,,,2022-06-16 23:21:23,25165
5c5676fd9fcbc40001dc603b,ma_choice_v4_observers_pilot1,5c5676fd9fcbc40001dc603b,0,Closeness to parks,-1,15 min away,30 min away,direction,3622,,,,,2022-06-16 23:21:38,25166
5c5676fd9fcbc40001dc603b,ma_choice_v4_observers_pilot1,5c5676fd9fcbc40001dc603b,2,Reputation of closest school,-1,Moderate,Very Bad,direction,2389,,,,,2022-06-16 23:21:46,25168
5c5676fd9fcbc40001dc603b,ma_choice_v4_observers_pilot1,5c5676fd9fcbc40001dc603b,4,Size of yard,-1,300 square feet,0 square feet,direction,2390,,,,,2022-06-16 23:21:54,25169
5c5676fd9fcbc40001dc603b,ma_choice_v4_observers_pilot1,5c5676fd9fcbc40001dc603b,5,Quality of kitchen,-1,Very Good,Very Bad,direction,2822,,,,,2022-06-16 23:22:01,25171
615a1f42a3ce6e8a6bed8515,ma_choice_v4_observers_pilot1,615a1f42a3ce6e8a6bed8515,5,Quality of kitchen,46,,,wad_att_rating,21663,,,,,2022-06-16 23:22:06,25172
615a1f42a3ce6e8a6bed8515,ma_choice_v4_observers_pilot1,615a1f42a3ce6e8a6bed8515,6,Quality of heat/AC system,92,,,wad_att_rating,9375,,,,,2022-06-16 23:22:16,25174
5c5676fd9fcbc40001dc603b,ma_choice_v4_observers_pilot1,5c5676fd9fcbc40001dc603b,7,Amount of traffic,-1,A Moderate Amount,A Lot,direction,7726,,,,,2022-06-16 23:22:20,25176
615a1f42a3ce6e8a6bed8515,ma_choice_v4_observers_pilot1,615a1f42a3ce6e8a6bed8515,0,Closeness to parks,49,,,wad_att_rating,5847,,,,,2022-06-16 23:22:21,25177
615a1f42a3ce6e8a6bed8515,ma_choice_v4_observers_pilot1,615a1f42a3ce6e8a6bed8515,2,Reputation of closest school,90,,,wad_att_rating,5350,,,,,2022-06-16 23:22:27,25178
5c5676fd9fcbc40001dc603b,ma_choice_v4_observers_pilot1,5c5676fd9fcbc40001dc603b,3,Year building was built,-1,1985,1950,direction,5926,,,,,2022-06-16 23:22:33,25179
615a1f42a3ce6e8a6bed8515,ma_choice_v4_observers_pilot1,615a1f42a3ce6e8a6bed8515,4,Size of yard,26,,,wad_att_rating,6582,,,,,2022-06-16 23:22:33,25180
615a1f42a3ce6e8a6bed8515,ma_choice_v4_observers_pilot1,615a1f42a3ce6e8a6bed8515,3,Year building was built,24,,,wad_att_rating,4798,,,,,2022-06-16 23:22:38,25183
5c5676fd9fcbc40001dc603b,ma_choice_v4_observers_pilot1,5c5676fd9fcbc40001dc603b,8,Size of home,-1,1200 square feet,1800 square feet,direction,6373,,,,,2022-06-16 23:22:43,25186
615a1f42a3ce6e8a6bed8515,ma_choice_v4_observers_pilot1,615a1f42a3ce6e8a6bed8515,1,Noise pollution,54,,,wad_att_rating,6126,,,,,2022-06-16 23:22:44,25188
615a1f42a3ce6e8a6bed8515,ma_choice_v4_observers_pilot1,615a1f42a3ce6e8a6bed8515,7,Amount of traffic,53,,,wad_att_rating,4710,,,,,2022-06-16 23:22:49,25190
5c5676fd9fcbc40001dc603b,ma_choice_v4_observers_pilot1,5c5676fd9fcbc40001dc603b,1,Noise pollution,-1,Very Low,Very High,direction,1758,,,,,2022-06-16 23:22:50,25191
615a1f42a3ce6e8a6bed8515,ma_choice_v4_observers_pilot1,615a1f42a3ce6e8a6bed8515,8,Size of home,51,,,wad_att_rating,4542,,,,,2022-06-16 23:22:54,25194
615a1f42a3ce6e8a6bed8515,ma_choice_v4_observers_pilot1,615a1f42a3ce6e8a6bed8515,0,Noise pollution,1,,,ew_att_rating,21608,,,,,2022-06-16 23:23:40,25202
615a1f42a3ce6e8a6bed8515,ma_choice_v4_observers_pilot1,615a1f42a3ce6e8a6bed8515,0,Quality of kitchen,1,,,ew_att_rating,21608,,,,,2022-06-16 23:23:40,25203
615a1f42a3ce6e8a6bed8515,ma_choice_v4_observers_pilot1,615a1f42a3ce6e8a6bed8515,0,Quality of heat/AC system,1,,,ew_att_rating,21608,,,,,2022-06-16 23:23:40,25204
615a1f42a3ce6e8a6bed8515,ma_choice_v4_observers_pilot1,615a1f42a3ce6e8a6bed8515,0,Amount of traffic,1,,,ew_att_rating,21608,,,,,2022-06-16 23:23:40,25205
615a1f42a3ce6e8a6bed8515,ma_choice_v4_observers_pilot1,615a1f42a3ce6e8a6bed8515,0,Reputation of closest school,1,,,ew_att_rating,21608,,,,,2022-06-16 23:23:40,25206
615a1f42a3ce6e8a6bed8515,ma_choice_v4_observers_pilot1,615a1f42a3ce6e8a6bed8515,0,Quality of heat/AC system,1,,,lex_att_rating,8842,,,,,2022-06-16 23:23:57,25213
6111dbe985f809c17943f373,ma_choice_v4_observers_pilot1,6111dbe985f809c17943f373,0,Size of yard,1,,,lex_att_rating,11631,,,,,2022-06-16 23:24:04,25214
5d16b8aeaa676d001a898b7d,ma_choice_v4_observers_pilot1,5d16b8aeaa676d001a898b7d,1,Noise pollution,0,,,wad_att_rating,4457,,,,,2022-06-16 23:24:12,25215
6111dbe985f809c17943f373,ma_choice_v4_observers_pilot1,6111dbe985f809c17943f373,3,Year building was built,74,,,wad_att_rating,6178,,,,,2022-06-16 23:24:13,25216
6111dbe985f809c17943f373,ma_choice_v4_observers_pilot1,6111dbe985f809c17943f373,0,Closeness to parks,32,,,wad_att_rating,3947,,,,,2022-06-16 23:24:17,25217
5d16b8aeaa676d001a898b7d,ma_choice_v4_observers_pilot1,5d16b8aeaa676d001a898b7d,7,Amount of traffic,0,,,wad_att_rating,5889,,,,,2022-06-16 23:24:18,25218
6111dbe985f809c17943f373,ma_choice_v4_observers_pilot1,6111dbe985f809c17943f373,2,Reputation of closest school,13,,,wad_att_rating,3891,,,,,2022-06-16 23:24:21,25219
5d16b8aeaa676d001a898b7d,ma_choice_v4_observers_pilot1,5d16b8aeaa676d001a898b7d,8,Size of home,0,,,wad_att_rating,3090,,,,,2022-06-16 23:24:21,25220
5d16b8aeaa676d001a898b7d,ma_choice_v4_observers_pilot1,5d16b8aeaa676d001a898b7d,5,Quality of kitchen,0,,,wad_att_rating,3133,,,,,2022-06-16 23:24:24,25221
6111dbe985f809c17943f373,ma_choice_v4_observers_pilot1,6111dbe985f809c17943f373,8,Size of home,37,,,wad_att_rating,4439,,,,,2022-06-16 23:24:25,25222
5d16b8aeaa676d001a898b7d,ma_choice_v4_observers_pilot1,5d16b8aeaa676d001a898b7d,2,Reputation of closest school,0,,,wad_att_rating,3185,,,,,2022-06-16 23:24:28,25223
6111dbe985f809c17943f373,ma_choice_v4_observers_pilot1,6111dbe985f809c17943f373,1,Noise pollution,37,,,wad_att_rating,2942,,,,,2022-06-16 23:24:28,25224
6111dbe985f809c17943f373,ma_choice_v4_observers_pilot1,6111dbe985f809c17943f373,4,Size of yard,80,,,wad_att_rating,3052,,,,,2022-06-16 23:24:31,25226
5d16b8aeaa676d001a898b7d,ma_choice_v4_observers_pilot1,5d16b8aeaa676d001a898b7d,0,Closeness to parks,24,,,wad_att_rating,4818,,,,,2022-06-16 23:24:32,25227
6111dbe985f809c17943f373,ma_choice_v4_observers_pilot1,6111dbe985f809c17943f373,5,Quality of kitchen,20,,,wad_att_rating,2900,,,,,2022-06-16 23:24:34,25228
5d16b8aeaa676d001a898b7d,ma_choice_v4_observers_pilot1,5d16b8aeaa676d001a898b7d,6,Quality of heat/AC system,0,,,wad_att_rating,4035,,,,,2022-06-16 23:24:36,25230
6111dbe985f809c17943f373,ma_choice_v4_observers_pilot1,6111dbe985f809c17943f373,7,Amount of traffic,50,,,wad_att_rating,3462,,,,,2022-06-16 23:24:37,25231
5d16b8aeaa676d001a898b7d,ma_choice_v4_observers_pilot1,5d16b8aeaa676d001a898b7d,4,Size of yard,100,,,wad_att_rating,4848,,,,,2022-06-16 23:24:41,25232
6111dbe985f809c17943f373,ma_choice_v4_observers_pilot1,6111dbe985f809c17943f373,6,Quality of heat/AC system,61,,,wad_att_rating,3723,,,,,2022-06-16 23:24:41,25233
5d16b8aeaa676d001a898b7d,ma_choice_v4_observers_pilot1,5d16b8aeaa676d001a898b7d,3,Year building was built,12,,,wad_att_rating,3748,,,,,2022-06-16 23:24:45,25234
6111dbe985f809c17943f373,ma_choice_v4_observers_pilot1,6111dbe985f809c17943f373,0,Year building was built,1,,,ew_att_rating,5988,,,,,2022-06-16 23:24:55,25235
6111dbe985f809c17943f373,ma_choice_v4_observers_pilot1,6111dbe985f809c17943f373,0,Size of yard,1,,,ew_att_rating,5988,,,,,2022-06-16 23:24:55,25236
5d16b8aeaa676d001a898b7d,ma_choice_v4_observers_pilot1,5d16b8aeaa676d001a898b7d,0,Size of yard,1,,,lex_att_rating,4681,,,,,2022-06-16 23:24:56,25237
5ede9b80b8a141131edabbe1,ma_choice_v4_observers_pilot1,5ede9b80b8a141131edabbe1,6,Quality of heat/AC system,-1,Moderate,Moderate,direction,6428,,,,,2022-06-16 23:25:06,25241
5d16b8aeaa676d001a898b7d,ma_choice_v4_observers_pilot1,5d16b8aeaa676d001a898b7d,0,Size of yard,1,,,ew_att_rating,8361,,,,,2022-06-16 23:25:14,25244
5ede9b80b8a141131edabbe1,ma_choice_v4_observers_pilot1,5ede9b80b8a141131edabbe1,8,Size of home,-1,1800 square feet,600 square feet,direction,4967,,,,,2022-06-16 23:25:18,25245
5ede9b80b8a141131edabbe1,ma_choice_v4_observers_pilot1,5ede9b80b8a141131edabbe1,2,Reputation of closest school,-1,Good,Very Bad,direction,3174,,,,,2022-06-16 23:25:26,25248
5ede9b80b8a141131edabbe1,ma_choice_v4_observers_pilot1,5ede9b80b8a141131edabbe1,7,Amount of traffic,-1,A Little,A Lot,direction,3377,,,,,2022-06-16 23:25:36,25250
5b2890f10ec82d0001d24b61,ma_choice_v4_observers_pilot1,5b4d39f2d4c93b00019c8217,0,Size of yard,1,,,ew_att_rating,14566,,,,,2022-06-16 23:25:40,25253
5b2890f10ec82d0001d24b61,ma_choice_v4_observers_pilot1,5b4d39f2d4c93b00019c8217,0,Size of home,1,,,ew_att_rating,14566,,,,,2022-06-16 23:25:40,25254
5b2890f10ec82d0001d24b61,ma_choice_v4_observers_pilot1,5b4d39f2d4c93b00019c8217,0,Year building was built,1,,,ew_att_rating,14566,,,,,2022-06-16 23:25:40,25255
5b2890f10ec82d0001d24b61,ma_choice_v4_observers_pilot1,5b4d39f2d4c93b00019c8217,0,Quality of heat/AC system,1,,,ew_att_rating,14566,,,,,2022-06-16 23:25:40,25256
5ede9b80b8a141131edabbe1,ma_choice_v4_observers_pilot1,5ede9b80b8a141131edabbe1,5,Quality of kitchen,-1,Good,Very Bad,direction,2485,,,,,2022-06-16 23:25:45,25259
5b2890f10ec82d0001d24b61,ma_choice_v4_observers_pilot1,5b4d39f2d4c93b00019c8217,1,Noise pollution,12,,,wad_att_rating,5824,,,,,2022-06-16 23:25:49,25260
5ede9b80b8a141131edabbe1,ma_choice_v4_observers_pilot1,5ede9b80b8a141131edabbe1,4,Size of yard,-1,600 square feet,0 square feet,direction,2234,,,,,2022-06-16 23:25:51,25261
5b2890f10ec82d0001d24b61,ma_choice_v4_observers_pilot1,5b4d39f2d4c93b00019c8217,2,Reputation of closest school,10,,,wad_att_rating,6295,,,,,2022-06-16 23:25:56,25264
5ede9b80b8a141131edabbe1,ma_choice_v4_observers_pilot1,5ede9b80b8a141131edabbe1,0,Closeness to parks,-1,15 min away,30 min away,direction,2724,,,,,2022-06-16 23:25:59,25266
5b2890f10ec82d0001d24b61,ma_choice_v4_observers_pilot1,5b4d39f2d4c93b00019c8217,5,Quality of kitchen,23,,,wad_att_rating,6085,,,,,2022-06-16 23:26:02,25268
5ede9b80b8a141131edabbe1,ma_choice_v4_observers_pilot1,5ede9b80b8a141131edabbe1,1,Noise pollution,-1,Very Low,Very High,direction,2163,,,,,2022-06-16 23:26:04,25269
5b2890f10ec82d0001d24b61,ma_choice_v4_observers_pilot1,5b4d39f2d4c93b00019c8217,6,Quality of heat/AC system,49,,,wad_att_rating,5051,,,,,2022-06-16 23:26:07,25270
5b2890f10ec82d0001d24b61,ma_choice_v4_observers_pilot1,5b4d39f2d4c93b00019c8217,0,Closeness to parks,12,,,wad_att_rating,4829,,,,,2022-06-16 23:26:11,25271
5ede9b80b8a141131edabbe1,ma_choice_v4_observers_pilot1,5ede9b80b8a141131edabbe1,3,Year building was built,-1,1985,1985,direction,4655,,,,,2022-06-16 23:26:14,25272
5b2890f10ec82d0001d24b61,ma_choice_v4_observers_pilot1,5b4d39f2d4c93b00019c8217,8,Size of home,87,,,wad_att_rating,5567,,,,,2022-06-16 23:26:17,25273
5b2890f10ec82d0001d24b61,ma_choice_v4_observers_pilot1,5b4d39f2d4c93b00019c8217,3,Year building was built,73,,,wad_att_rating,4368,,,,,2022-06-16 23:26:21,25274
5b2890f10ec82d0001d24b61,ma_choice_v4_observers_pilot1,5b4d39f2d4c93b00019c8217,7,Amount of traffic,14,,,wad_att_rating,5181,,,,,2022-06-16 23:26:27,25275
5b2890f10ec82d0001d24b61,ma_choice_v4_observers_pilot1,5b4d39f2d4c93b00019c8217,4,Size of yard,75,,,wad_att_rating,3835,,,,,2022-06-16 23:26:30,25276
5d16b8aeaa676d001a898b7d,ma_choice_v4_observers_pilot1,5d16b8aeaa676d001a898b7d,6,Quality of heat/AC system,-1,Bad,Moderate,direction,5461,,,,,2022-06-16 23:26:42,25278
5b2890f10ec82d0001d24b61,ma_choice_v4_observers_pilot1,5b4d39f2d4c93b00019c8217,0,Size of home,1,,,lex_att_rating,7363,,,,,2022-06-16 23:26:43,25279
5d16b8aeaa676d001a898b7d,ma_choice_v4_observers_pilot1,5d16b8aeaa676d001a898b7d,4,Size of yard,-1,600 square feet,0 square feet,direction,3596,,,,,2022-06-16 23:26:50,25280
5d16b8aeaa676d001a898b7d,ma_choice_v4_observers_pilot1,5d16b8aeaa676d001a898b7d,7,Amount of traffic,-1,A Moderate Amount,A Lot,direction,7678,,,,,2022-06-16 23:27:04,25283
5d16b8aeaa676d001a898b7d,ma_choice_v4_observers_pilot1,5d16b8aeaa676d001a898b7d,3,Year building was built,-1,1950,2020,direction,4081,,,,,2022-06-16 23:27:14,25284
612e6310e2368675cda1aed5,ma_choice_v4_observers_pilot1,612e6310e2368675cda1aed5,2,Reputation of closest school,26,,,wad_att_rating,5784,,,,,2022-06-16 23:27:17,25285
612e6310e2368675cda1aed5,ma_choice_v4_observers_pilot1,612e6310e2368675cda1aed5,1,Noise pollution,10,,,wad_att_rating,4147,,,,,2022-06-16 23:27:21,25287
5d16b8aeaa676d001a898b7d,ma_choice_v4_observers_pilot1,5d16b8aeaa676d001a898b7d,5,Quality of kitchen,-1,Bad,Very Good,direction,3097,,,,,2022-06-16 23:27:23,25288
612e6310e2368675cda1aed5,ma_choice_v4_observers_pilot1,612e6310e2368675cda1aed5,0,Closeness to parks,73,,,wad_att_rating,3010,,,,,2022-06-16 23:27:24,25289
612e6310e2368675cda1aed5,ma_choice_v4_observers_pilot1,612e6310e2368675cda1aed5,3,Year building was built,81,,,wad_att_rating,2821,,,,,2022-06-16 23:27:27,25291
612e6310e2368675cda1aed5,ma_choice_v4_observers_pilot1,612e6310e2368675cda1aed5,6,Quality of heat/AC system,48,,,wad_att_rating,3204,,,,,2022-06-16 23:27:30,25292
612e6310e2368675cda1aed5,ma_choice_v4_observers_pilot1,612e6310e2368675cda1aed5,4,Size of yard,39,,,wad_att_rating,2503,,,,,2022-06-16 23:27:32,25293
5d16b8aeaa676d001a898b7d,ma_choice_v4_observers_pilot1,5d16b8aeaa676d001a898b7d,0,Closeness to parks,-1,25 min away,10 min away,direction,3482,,,,,2022-06-16 23:27:33,25294
612e6310e2368675cda1aed5,ma_choice_v4_observers_pilot1,612e6310e2368675cda1aed5,8,Size of home,76,,,wad_att_rating,3191,,,,,2022-06-16 23:27:36,25296
60fe38317cb19f2601f75e05,ma_choice_v4_observers_pilot1,60fe38317cb19f2601f75e05,0,Closeness to parks,1,,,ew_att_rating,17389,,,,,2022-06-16 23:27:38,25297
60fe38317cb19f2601f75e05,ma_choice_v4_observers_pilot1,60fe38317cb19f2601f75e05,0,Reputation of closest school,1,,,ew_att_rating,17389,,,,,2022-06-16 23:27:38,25298
60fe38317cb19f2601f75e05,ma_choice_v4_observers_pilot1,60fe38317cb19f2601f75e05,0,Noise pollution,1,,,ew_att_rating,17389,,,,,2022-06-16 23:27:38,25299
60fe38317cb19f2601f75e05,ma_choice_v4_observers_pilot1,60fe38317cb19f2601f75e05,0,Quality of kitchen,1,,,ew_att_rating,17389,,,,,2022-06-16 23:27:38,25300
60fe38317cb19f2601f75e05,ma_choice_v4_observers_pilot1,60fe38317cb19f2601f75e05,0,Quality of heat/AC system,1,,,ew_att_rating,17389,,,,,2022-06-16 23:27:38,25301
60fe38317cb19f2601f75e05,ma_choice_v4_observers_pilot1,60fe38317cb19f2601f75e05,0,Amount of traffic,1,,,ew_att_rating,17389,,,,,2022-06-16 23:27:38,25302
612e6310e2368675cda1aed5,ma_choice_v4_observers_pilot1,612e6310e2368675cda1aed5,7,Amount of traffic,1,,,wad_att_rating,2671,,,,,2022-06-16 23:27:38,25303
5d16b8aeaa676d001a898b7d,ma_choice_v4_observers_pilot1,5d16b8aeaa676d001a898b7d,2,Reputation of closest school,-1,Bad,Very Good,direction,3163,,,,,2022-06-16 23:27:40,25304
612e6310e2368675cda1aed5,ma_choice_v4_observers_pilot1,612e6310e2368675cda1aed5,5,Quality of kitchen,37,,,wad_att_rating,2622,,,,,2022-06-16 23:27:42,25305
60fe38317cb19f2601f75e05,ma_choice_v4_observers_pilot1,60fe38317cb19f2601f75e05,0,Quality of heat/AC system,1,,,lex_att_rating,7022,,,,,2022-06-16 23:27:49,25307
5d16b8aeaa676d001a898b7d,ma_choice_v4_observers_pilot1,5d16b8aeaa676d001a898b7d,1,Noise pollution,-1,Very Low,Very High,direction,2948,,,,,2022-06-16 23:27:52,25308
60fe38317cb19f2601f75e05,ma_choice_v4_observers_pilot1,60fe38317cb19f2601f75e05,8,Size of home,38,,,wad_att_rating,4871,,,,,2022-06-16 23:27:58,25310
5d16b8aeaa676d001a898b7d,ma_choice_v4_observers_pilot1,5d16b8aeaa676d001a898b7d,8,Size of home,-1,1200 square feet,600 square feet,direction,2231,,,,,2022-06-16 23:27:58,25311
60fe38317cb19f2601f75e05,ma_choice_v4_observers_pilot1,60fe38317cb19f2601f75e05,0,Closeness to parks,52,,,wad_att_rating,3256,,,,,2022-06-16 23:28:01,25313
612e6310e2368675cda1aed5,ma_choice_v4_observers_pilot1,612e6310e2368675cda1aed5,0,Year building was built,1,,,ew_att_rating,10837,,,,,2022-06-16 23:28:02,25314
612e6310e2368675cda1aed5,ma_choice_v4_observers_pilot1,612e6310e2368675cda1aed5,0,Size of home,1,,,ew_att_rating,10837,,,,,2022-06-16 23:28:02,25315
612e6310e2368675cda1aed5,ma_choice_v4_observers_pilot1,612e6310e2368675cda1aed5,0,Closeness to parks,1,,,ew_att_rating,10837,,,,,2022-06-16 23:28:02,25316
612e6310e2368675cda1aed5,ma_choice_v4_observers_pilot1,612e6310e2368675cda1aed5,0,Size of yard,1,,,ew_att_rating,10837,,,,,2022-06-16 23:28:02,25317
60fe38317cb19f2601f75e05,ma_choice_v4_observers_pilot1,60fe38317cb19f2601f75e05,1,Noise pollution,71,,,wad_att_rating,3167,,,,,2022-06-16 23:28:04,25318
60fe38317cb19f2601f75e05,ma_choice_v4_observers_pilot1,60fe38317cb19f2601f75e05,4,Size of yard,24,,,wad_att_rating,2315,,,,,2022-06-16 23:28:06,25319
60fe38317cb19f2601f75e05,ma_choice_v4_observers_pilot1,60fe38317cb19f2601f75e05,5,Quality of kitchen,92,,,wad_att_rating,3829,,,,,2022-06-16 23:28:10,25320
60fe38317cb19f2601f75e05,ma_choice_v4_observers_pilot1,60fe38317cb19f2601f75e05,6,Quality of heat/AC system,100,,,wad_att_rating,2679,,,,,2022-06-16 23:28:13,25321
60fe38317cb19f2601f75e05,ma_choice_v4_observers_pilot1,60fe38317cb19f2601f75e05,7,Amount of traffic,54,,,wad_att_rating,3037,,,,,2022-06-16 23:28:16,25322
612e6310e2368675cda1aed5,ma_choice_v4_observers_pilot1,612e6310e2368675cda1aed5,0,Closeness to parks,1,,,lex_att_rating,7766,,,,,2022-06-16 23:28:17,25323
60fe38317cb19f2601f75e05,ma_choice_v4_observers_pilot1,60fe38317cb19f2601f75e05,2,Reputation of closest school,73,,,wad_att_rating,2630,,,,,2022-06-16 23:28:19,25324
60fe38317cb19f2601f75e05,ma_choice_v4_observers_pilot1,60fe38317cb19f2601f75e05,3,Year building was built,36,,,wad_att_rating,5408,,,,,2022-06-16 23:28:24,25325
612e6310e2368675cda1aed5,ma_choice_v4_observers_pilot1,612e6310e2368675cda1aed5,4,Size of yard,-1,600 square feet,0 square feet,direction,3777,,,,,2022-06-16 23:29:22,25330
612e6310e2368675cda1aed5,ma_choice_v4_observers_pilot1,612e6310e2368675cda1aed5,7,Amount of traffic,-1,A Little,A Lot,direction,4383,,,,,2022-06-16 23:29:31,25332
612e6310e2368675cda1aed5,ma_choice_v4_observers_pilot1,612e6310e2368675cda1aed5,2,Reputation of closest school,-1,Good,Very Bad,direction,2513,,,,,2022-06-16 23:29:39,25333
60fe38317cb19f2601f75e05,ma_choice_v4_observers_pilot1,60fe38317cb19f2601f75e05,2,Reputation of closest school,-1,Good,Very Bad,direction,4449,,,,,2022-06-16 23:29:44,25335
612e6310e2368675cda1aed5,ma_choice_v4_observers_pilot1,612e6310e2368675cda1aed5,1,Noise pollution,-1,Low,Very High,direction,3672,,,,,2022-06-16 23:29:47,25336
60fe38317cb19f2601f75e05,ma_choice_v4_observers_pilot1,60fe38317cb19f2601f75e05,7,Amount of traffic,-1,A Moderate Amount,A Lot,direction,4065,,,,,2022-06-16 23:29:51,25338
60fe38317cb19f2601f75e05,ma_choice_v4_observers_pilot1,60fe38317cb19f2601f75e05,1,Noise pollution,-1,Very Low,Very High,direction,2004,,,,,2022-06-16 23:29:56,25340
612e6310e2368675cda1aed5,ma_choice_v4_observers_pilot1,612e6310e2368675cda1aed5,6,Quality of heat/AC system,-1,Very Good,Very Bad,direction,2127,,,,,2022-06-16 23:30:01,25341
60fe38317cb19f2601f75e05,ma_choice_v4_observers_pilot1,60fe38317cb19f2601f75e05,4,Size of yard,-1,300 square feet,0 square feet,direction,2394,,,,,2022-06-16 23:30:02,25342
60fe38317cb19f2601f75e05,ma_choice_v4_observers_pilot1,60fe38317cb19f2601f75e05,6,Quality of heat/AC system,-1,Very Good,Very Bad,direction,1435,,,,,2022-06-16 23:30:06,25344
612e6310e2368675cda1aed5,ma_choice_v4_observers_pilot1,612e6310e2368675cda1aed5,3,Year building was built,-1,2020,1950,direction,1689,,,,,2022-06-16 23:30:07,25345
60fe38317cb19f2601f75e05,ma_choice_v4_observers_pilot1,60fe38317cb19f2601f75e05,3,Year building was built,-1,2020,1950,direction,1497,,,,,2022-06-16 23:30:11,25346
612e6310e2368675cda1aed5,ma_choice_v4_observers_pilot1,612e6310e2368675cda1aed5,0,Closeness to parks,-1,10 min away,30 min away,direction,2174,,,,,2022-06-16 23:30:14,25347
60fe38317cb19f2601f75e05,ma_choice_v4_observers_pilot1,60fe38317cb19f2601f75e05,5,Quality of kitchen,-1,Very Good,Very Bad,direction,1717,,,,,2022-06-16 23:30:15,25348
612e6310e2368675cda1aed5,ma_choice_v4_observers_pilot1,612e6310e2368675cda1aed5,5,Quality of kitchen,-1,Good,Very Bad,direction,1479,,,,,2022-06-16 23:30:20,25349
60fe38317cb19f2601f75e05,ma_choice_v4_observers_pilot1,60fe38317cb19f2601f75e05,8,Size of home,-1,1200 square feet,600 square feet,direction,1207,,,,,2022-06-16 23:30:22,25350
612e6310e2368675cda1aed5,ma_choice_v4_observers_pilot1,612e6310e2368675cda1aed5,8,Size of home,-1,1800 square feet,600 square feet,direction,1741,,,,,2022-06-16 23:30:26,25351
60fe38317cb19f2601f75e05,ma_choice_v4_observers_pilot1,60fe38317cb19f2601f75e05,0,Closeness to parks,-1,15 min away,30 min away,direction,1380,,,,,2022-06-16 23:30:27,25352
5f111456d672e8471ca03f46,ma_choice_v4_observers_pilot1,5f111456d672e8471ca03f46,0,Year building was built,1,,,ew_att_rating,13252,,,,,2022-06-16 23:30:54,25353
5f111456d672e8471ca03f46,ma_choice_v4_observers_pilot1,5f111456d672e8471ca03f46,0,Quality of kitchen,1,,,ew_att_rating,13252,,,,,2022-06-16 23:30:54,25354
5f111456d672e8471ca03f46,ma_choice_v4_observers_pilot1,5f111456d672e8471ca03f46,0,Year building was built,1,,,lex_att_rating,2905,,,,,2022-06-16 23:31:08,25355
6111dbe985f809c17943f373,ma_choice_v4_observers_pilot1,6111dbe985f809c17943f373,1,Noise pollution,-1,Low,High,direction,3921,,,,,2022-06-16 23:31:16,25356
5b2890f10ec82d0001d24b61,ma_choice_v4_observers_pilot1,5b4d39f2d4c93b00019c8217,4,Size of yard,-1,300 square feet,0 square feet,direction,6009,,,,,2022-06-16 23:31:17,25357
5f111456d672e8471ca03f46,ma_choice_v4_observers_pilot1,5f111456d672e8471ca03f46,3,Year building was built,76,,,wad_att_rating,5085,,,,,2022-06-16 23:31:22,25358
6111dbe985f809c17943f373,ma_choice_v4_observers_pilot1,6111dbe985f809c17943f373,4,Size of yard,-1,600 square feet,0 square feet,direction,1948,,,,,2022-06-16 23:31:23,25359
6111dbe985f809c17943f373,ma_choice_v4_observers_pilot1,6111dbe985f809c17943f373,5,Quality of kitchen,-1,Moderate,Moderate,direction,1389,,,,,2022-06-16 23:31:27,25360
