subject,version,assignmentId,trial,practice,opt1_id,opt2_id,attributes,opt1_values,opt2_values,choice,rt,stamp,id
60fe22dd264b60cfa27edffd,ma_choice_v3_pilot3,60fe22dd264b60cfa27edffd,0,1,-1,-1,"Amount of natural light,Washer/dryer in unit,Size of home,Reputation of closest school,Year building was built,Proximity to public transportation,Amount of traffic,Proximity to parks,Noise pollution,Size of yard,Quality of heat/AC system,Proximity to cafes/restaurants","A Lot,No,1200 square feet,Bad,1969,20 min away,A Little,10 min away,Moderate,300 square feet,Very Bad,5 min away","A Little,Yes,1700 square feet,Good,2016,5 min away,A Lot,20 min away,Very Low,700 square feet,Very Good,20 min away",1,19689,2022-01-26 19:19:23,10854
60fe22dd264b60cfa27edffd,ma_choice_v3_pilot3,60fe22dd264b60cfa27edffd,1,1,-1,-1,"Amount of traffic,Size of yard,Proximity to public transportation,Amount of natural light,Proximity to parks,Quality of heat/AC system,Washer/dryer in unit,Size of home,Noise pollution,Year building was built,Proximity to cafes/restaurants,Reputation of closest school","A Lot,0 square feet,20 min away,Very Little,15 min away,Very Good,Yes,1800 square feet,Moderate,1983,15 min away,Good","Very Little,400 square feet,10 min away,A Moderate Amount,25 min away,Very Bad,No,800 square feet,Very High,2012,25 min away,Very Bad",0,25261,2022-01-26 19:19:49,10855
60fe22dd264b60cfa27edffd,ma_choice_v3_pilot3,60fe22dd264b60cfa27edffd,2,1,-1,-1,"Amount of natural light,Quality of heat/AC system,Year building was built,Size of yard,Amount of traffic,Proximity to cafes/restaurants,Size of home,Washer/dryer in unit,Proximity to parks,Proximity to public transportation,Reputation of closest school,Noise pollution","A Moderate Amount,Very Good,1967,500 square feet,A Moderate Amount,5 min away,1700 square feet,No,5 min away,10 min away,Very Bad,Low","Very Little,Bad,1992,900 square feet,Very Little,25 min away,1200 square feet,Yes,25 min away,25 min away,Moderate,Very High",0,11087,2022-01-26 19:20:01,10856
60fe22dd264b60cfa27edffd,ma_choice_v3_pilot3,60fe22dd264b60cfa27edffd,3,1,-1,-1,"Proximity to parks,Washer/dryer in unit,Proximity to cafes/restaurants,Proximity to public transportation,Quality of heat/AC system,Size of yard,Year building was built,Reputation of closest school,Amount of natural light,Noise pollution,Size of home,Amount of traffic","20 min away,Yes,5 min away,25 min away,Moderate,700 square feet,1983,Very Bad,Very Little,Very High,1100 square feet,A Little","10 min away,No,25 min away,10 min away,Very Bad,400 square feet,2010,Moderate,A Moderate Amount,Moderate,1800 square feet,A Lot",1,13638,2022-01-26 19:20:16,10857
60fe22dd264b60cfa27edffd,ma_choice_v3_pilot3,60fe22dd264b60cfa27edffd,4,1,-1,-1,"Amount of traffic,Size of home,Year building was built,Proximity to public transportation,Quality of heat/AC system,Amount of natural light,Proximity to cafes/restaurants,Noise pollution,Washer/dryer in unit,Proximity to parks,Size of yard,Reputation of closest school","A Little,1600 square feet,2016,25 min away,Very Bad,Very Little,15 min away,Low,No,20 min away,900 square feet,Very Bad","A Lot,1100 square feet,1982,15 min away,Good,A Lot,25 min away,High,Yes,10 min away,400 square feet,Good",0,7977,2022-01-26 19:20:25,10858
60fe22dd264b60cfa27edffd,ma_choice_v3_pilot3,60fe22dd264b60cfa27edffd,5,1,-1,-1,"Proximity to cafes/restaurants,Proximity to parks,Reputation of closest school,Year building was built,Proximity to public transportation,Quality of heat/AC system,Size of home,Noise pollution,Washer/dryer in unit,Amount of traffic,Amount of natural light,Size of yard","25 min away,5 min away,Good,1950,25 min away,Moderate,900 square feet,Very Low,No,A Lot,A Lot,700 square feet","15 min away,15 min away,Bad,1984,10 min away,Very Good,600 square feet,High,Yes,Very Little,A Little,100 square feet",0,8050,2022-01-26 19:20:34,10859
60fe22dd264b60cfa27edffd,ma_choice_v3_pilot3,60fe22dd264b60cfa27edffd,6,1,-1,-1,"Proximity to cafes/restaurants,Amount of traffic,Size of yard,Reputation of closest school,Noise pollution,Amount of natural light,Proximity to parks,Washer/dryer in unit,Year building was built,Proximity to public transportation,Size of home,Quality of heat/AC system","5 min away,A Lot,100 square feet,Very Good,Low,A Lot,25 min away,Yes,1976,15 min away,700 square feet,Bad","15 min away,A Little,700 square feet,Bad,High,Very Little,15 min away,No,2015,5 min away,1000 square feet,Good",1,7465,2022-01-26 19:20:43,10860
60fe22dd264b60cfa27edffd,ma_choice_v3_pilot3,60fe22dd264b60cfa27edffd,7,1,-1,-1,"Amount of traffic,Size of yard,Proximity to parks,Washer/dryer in unit,Reputation of closest school,Size of home,Amount of natural light,Quality of heat/AC system,Noise pollution,Proximity to public transportation,Proximity to cafes/restaurants,Year building was built","A Little,400 square feet,25 min away,Yes,Very Bad,1200 square feet,Very Little,Very Bad,Low,15 min away,10 min away,1993","A Lot,100 square feet,5 min away,No,Very Good,1000 square feet,A Lot,Moderate,Very High,5 min away,20 min away,1954",0,7456,2022-01-26 19:20:51,10861
60fe22dd264b60cfa27edffd,ma_choice_v3_pilot3,60fe22dd264b60cfa27edffd,8,1,-1,-1,"Proximity to parks,Size of home,Proximity to public transportation,Amount of traffic,Proximity to cafes/restaurants,Noise pollution,Amount of natural light,Washer/dryer in unit,Size of yard,Year building was built,Quality of heat/AC system,Reputation of closest school","15 min away,1300 square feet,15 min away,A Lot,15 min away,Low,A Moderate Amount,Yes,900 square feet,1971,Very Good,Very Good","5 min away,1700 square feet,5 min away,Very Little,5 min away,High,Very Little,No,400 square feet,1999,Moderate,Moderate",1,8916,2022-01-26 19:21:01,10862
60fe22dd264b60cfa27edffd,ma_choice_v3_pilot3,60fe22dd264b60cfa27edffd,9,1,-1,-1,"Amount of traffic,Noise pollution,Washer/dryer in unit,Reputation of closest school,Proximity to public transportation,Size of home,Amount of natural light,Quality of heat/AC system,Size of yard,Proximity to cafes/restaurants,Proximity to parks,Year building was built","A Lot,Very High,Yes,Very Bad,25 min away,800 square feet,A Moderate Amount,Bad,300 square feet,20 min away,15 min away,1989","A Little,Moderate,No,Moderate,15 min away,1400 square feet,Very Little,Very Good,600 square feet,10 min away,25 min away,1960",1,8519,2022-01-26 19:21:10,10863
60fe22dd264b60cfa27edffd,ma_choice_v3_pilot3,60fe22dd264b60cfa27edffd,0,0,-1,-1,"Noise pollution,Size of home,Reputation of closest school,Amount of natural light,Size of yard,Washer/dryer in unit,Amount of traffic,Proximity to public transportation,Proximity to cafes/restaurants,Year building was built,Quality of heat/AC system,Proximity to parks","Very Low,1600 square feet,Bad,A Little,500 square feet,No,Very Little,25 min away,25 min away,1950,Very Bad,5 min away","Very High,1200 square feet,Very Good,A Lot,900 square feet,Yes,A Lot,15 min away,15 min away,1972,Good,15 min away",0,8955,2022-01-26 19:21:29,10864
60fe22dd264b60cfa27edffd,ma_choice_v3_pilot3,60fe22dd264b60cfa27edffd,1,0,-1,-1,"Amount of traffic,Size of home,Proximity to public transportation,Amount of natural light,Quality of heat/AC system,Reputation of closest school,Proximity to cafes/restaurants,Noise pollution,Size of yard,Proximity to parks,Year building was built,Washer/dryer in unit","Very Little,1600 square feet,15 min away,A Little,Very Bad,Good,25 min away,High,800 square feet,10 min away,1952,No","A Lot,900 square feet,5 min away,A Lot,Very Good,Very Bad,10 min away,Very Low,600 square feet,20 min away,1996,Yes",0,8423,2022-01-26 19:21:38,10865
60fe22dd264b60cfa27edffd,ma_choice_v3_pilot3,60fe22dd264b60cfa27edffd,2,0,-1,-1,"Reputation of closest school,Noise pollution,Amount of natural light,Size of home,Amount of traffic,Proximity to public transportation,Washer/dryer in unit,Proximity to parks,Year building was built,Proximity to cafes/restaurants,Size of yard,Quality of heat/AC system","Very Good,High,A Little,1600 square feet,A Little,5 min away,Yes,5 min away,1973,10 min away,1000 square feet,Good","Very Bad,Very Low,A Lot,1300 square feet,A Lot,15 min away,No,20 min away,1951,20 min away,100 square feet,Very Bad",0,7526,2022-01-26 19:21:47,10866
60fe22dd264b60cfa27edffd,ma_choice_v3_pilot3,60fe22dd264b60cfa27edffd,3,0,-1,-1,"Reputation of closest school,Proximity to cafes/restaurants,Washer/dryer in unit,Amount of traffic,Year building was built,Proximity to parks,Proximity to public transportation,Size of home,Noise pollution,Amount of natural light,Size of yard,Quality of heat/AC system","Very Good,15 min away,No,A Lot,2009,15 min away,20 min away,1300 square feet,Very High,Very Little,500 square feet,Very Good","Very Bad,5 min away,Yes,A Little,1964,25 min away,5 min away,700 square feet,Very Low,A Lot,900 square feet,Moderate",0,8479,2022-01-26 19:21:56,10867
60fe22dd264b60cfa27edffd,ma_choice_v3_pilot3,60fe22dd264b60cfa27edffd,4,0,-1,-1,"Quality of heat/AC system,Year building was built,Size of home,Reputation of closest school,Amount of natural light,Washer/dryer in unit,Noise pollution,Proximity to cafes/restaurants,Proximity to parks,Size of yard,Amount of traffic,Proximity to public transportation","Very Good,1978,1100 square feet,Moderate,A Little,Yes,High,10 min away,5 min away,400 square feet,Very Little,25 min away","Moderate,2009,1500 square feet,Very Bad,A Lot,No,Low,20 min away,20 min away,800 square feet,A Moderate Amount,10 min away",1,12197,2022-01-26 19:22:09,10868
60fe22dd264b60cfa27edffd,ma_choice_v3_pilot3,60fe22dd264b60cfa27edffd,5,0,-1,-1,"Washer/dryer in unit,Proximity to public transportation,Size of home,Amount of natural light,Reputation of closest school,Amount of traffic,Proximity to cafes/restaurants,Noise pollution,Quality of heat/AC system,Proximity to parks,Size of yard,Year building was built","Yes,5 min away,600 square feet,A Moderate Amount,Good,Very Little,20 min away,High,Bad,20 min away,700 square feet,1980","No,25 min away,1300 square feet,Very Little,Very Bad,A Moderate Amount,5 min away,Low,Good,5 min away,500 square feet,2003",1,9770,2022-01-26 19:22:20,10869
60fe22dd264b60cfa27edffd,ma_choice_v3_pilot3,60fe22dd264b60cfa27edffd,6,0,-1,-1,"Size of home,Reputation of closest school,Amount of traffic,Size of yard,Proximity to parks,Proximity to cafes/restaurants,Washer/dryer in unit,Noise pollution,Year building was built,Quality of heat/AC system,Proximity to public transportation,Amount of natural light","1200 square feet,Bad,A Little,1000 square feet,5 min away,20 min away,No,High,1958,Very Bad,25 min away,A Moderate Amount","1700 square feet,Very Good,A Lot,200 square feet,15 min away,5 min away,Yes,Low,2006,Good,5 min away,Very Little",1,12948,2022-01-26 19:22:34,10870
60fe22dd264b60cfa27edffd,ma_choice_v3_pilot3,60fe22dd264b60cfa27edffd,7,0,-1,-1,"Proximity to cafes/restaurants,Size of home,Washer/dryer in unit,Amount of traffic,Amount of natural light,Size of yard,Year building was built,Reputation of closest school,Proximity to parks,Proximity to public transportation,Noise pollution,Quality of heat/AC system","15 min away,1400 square feet,Yes,Very Little,A Little,100 square feet,1972,Moderate,20 min away,20 min away,High,Good","25 min away,1800 square feet,No,A Lot,A Lot,700 square feet,2017,Very Bad,10 min away,10 min away,Low,Very Bad",1,7852,2022-01-26 19:22:43,10871
60fe22dd264b60cfa27edffd,ma_choice_v3_pilot3,60fe22dd264b60cfa27edffd,8,0,-1,-1,"Size of home,Proximity to public transportation,Amount of natural light,Noise pollution,Amount of traffic,Size of yard,Proximity to cafes/restaurants,Year building was built,Washer/dryer in unit,Proximity to parks,Quality of heat/AC system,Reputation of closest school","1500 square feet,20 min away,A Lot,High,A Lot,100 square feet,10 min away,1958,Yes,5 min away,Good,Very Bad","1000 square feet,5 min away,A Little,Very Low,Very Little,600 square feet,25 min away,2013,No,15 min away,Bad,Moderate",0,7670,2022-01-26 19:22:52,10872
60fe22dd264b60cfa27edffd,ma_choice_v3_pilot3,60fe22dd264b60cfa27edffd,9,0,-1,-1,"Year building was built,Size of yard,Reputation of closest school,Quality of heat/AC system,Proximity to parks,Washer/dryer in unit,Amount of traffic,Amount of natural light,Proximity to public transportation,Noise pollution,Proximity to cafes/restaurants,Size of home","2013,900 square feet,Very Bad,Very Bad,25 min away,Yes,A Moderate Amount,A Little,20 min away,High,25 min away,1600 square feet","1979,600 square feet,Very Good,Moderate,15 min away,No,Very Little,A Lot,5 min away,Low,10 min away,1300 square feet",0,8906,2022-01-26 19:23:02,10873
60fe22dd264b60cfa27edffd,ma_choice_v3_pilot3,60fe22dd264b60cfa27edffd,10,0,-1,-1,"Proximity to public transportation,Amount of traffic,Noise pollution,Washer/dryer in unit,Proximity to cafes/restaurants,Size of yard,Amount of natural light,Reputation of closest school,Quality of heat/AC system,Size of home,Year building was built,Proximity to parks","10 min away,A Moderate Amount,Very High,Yes,10 min away,400 square feet,A Moderate Amount,Moderate,Very Bad,800 square feet,2005,25 min away","20 min away,Very Little,Moderate,No,20 min away,100 square feet,Very Little,Very Bad,Very Good,1500 square feet,1976,5 min away",1,9941,2022-01-26 19:23:13,10874
60fe22dd264b60cfa27edffd,ma_choice_v3_pilot3,60fe22dd264b60cfa27edffd,11,0,-1,-1,"Quality of heat/AC system,Noise pollution,Year building was built,Proximity to parks,Proximity to public transportation,Proximity to cafes/restaurants,Reputation of closest school,Amount of traffic,Washer/dryer in unit,Size of yard,Amount of natural light,Size of home","Moderate,Low,2018,25 min away,25 min away,5 min away,Good,A Moderate Amount,Yes,600 square feet,Very Little,1100 square feet","Very Bad,High,1995,5 min away,5 min away,25 min away,Bad,Very Little,No,100 square feet,A Moderate Amount,800 square feet",0,8763,2022-01-26 19:23:22,10875
60fe22dd264b60cfa27edffd,ma_choice_v3_pilot3,60fe22dd264b60cfa27edffd,12,0,-1,-1,"Size of home,Noise pollution,Amount of traffic,Washer/dryer in unit,Quality of heat/AC system,Reputation of closest school,Proximity to public transportation,Year building was built,Proximity to cafes/restaurants,Proximity to parks,Size of yard,Amount of natural light","1100 square feet,Very High,Very Little,Yes,Very Good,Bad,5 min away,1963,25 min away,25 min away,500 square feet,Very Little","1800 square feet,Very Low,A Moderate Amount,No,Moderate,Very Good,20 min away,2000,15 min away,5 min away,200 square feet,A Moderate Amount",1,7783,2022-01-26 19:23:31,10876
60fe22dd264b60cfa27edffd,ma_choice_v3_pilot3,60fe22dd264b60cfa27edffd,13,0,-1,-1,"Reputation of closest school,Size of yard,Amount of natural light,Noise pollution,Proximity to public transportation,Proximity to parks,Amount of traffic,Proximity to cafes/restaurants,Year building was built,Size of home,Washer/dryer in unit,Quality of heat/AC system","Bad,200 square feet,A Moderate Amount,High,25 min away,20 min away,A Little,20 min away,1985,1600 square feet,No,Bad","Good,600 square feet,Very Little,Low,15 min away,5 min away,A Lot,5 min away,1961,1800 square feet,Yes,Very Good",1,9818,2022-01-26 19:23:42,10877
60fe22dd264b60cfa27edffd,ma_choice_v3_pilot3,60fe22dd264b60cfa27edffd,14,0,-1,-1,"Reputation of closest school,Noise pollution,Size of yard,Amount of traffic,Amount of natural light,Proximity to parks,Year building was built,Proximity to cafes/restaurants,Washer/dryer in unit,Proximity to public transportation,Size of home,Quality of heat/AC system","Very Good,Low,500 square feet,Very Little,A Moderate Amount,25 min away,1973,20 min away,Yes,20 min away,700 square feet,Very Bad","Moderate,High,300 square feet,A Moderate Amount,Very Little,15 min away,2006,5 min away,No,5 min away,1200 square feet,Good",1,9934,2022-01-26 19:23:53,10878
60fe22dd264b60cfa27edffd,ma_choice_v3_pilot3,60fe22dd264b60cfa27edffd,15,0,-1,-1,"Washer/dryer in unit,Proximity to parks,Size of yard,Amount of natural light,Noise pollution,Proximity to public transportation,Size of home,Year building was built,Amount of traffic,Quality of heat/AC system,Proximity to cafes/restaurants,Reputation of closest school","No,5 min away,400 square feet,Very Little,Very Low,25 min away,1000 square feet,1982,A Little,Good,20 min away,Bad","Yes,20 min away,200 square feet,A Lot,Very High,5 min away,1700 square feet,2011,A Lot,Very Bad,5 min away,Very Good",1,10128,2022-01-26 19:24:04,10879
60fe22dd264b60cfa27edffd,ma_choice_v3_pilot3,60fe22dd264b60cfa27edffd,16,0,-1,-1,"Proximity to cafes/restaurants,Proximity to public transportation,Year building was built,Size of home,Reputation of closest school,Proximity to parks,Noise pollution,Washer/dryer in unit,Amount of traffic,Amount of natural light,Size of yard,Quality of heat/AC system","10 min away,20 min away,1990,1000 square feet,Good,25 min away,Moderate,No,A Moderate Amount,Very Little,1000 square feet,Very Bad","20 min away,5 min away,1970,600 square feet,Bad,10 min away,Very Low,Yes,Very Little,A Lot,400 square feet,Very Good",0,8080,2022-01-26 19:24:13,10880
60fe22dd264b60cfa27edffd,ma_choice_v3_pilot3,60fe22dd264b60cfa27edffd,17,0,-1,-1,"Amount of traffic,Reputation of closest school,Quality of heat/AC system,Proximity to public transportation,Washer/dryer in unit,Year building was built,Amount of natural light,Size of home,Proximity to cafes/restaurants,Size of yard,Proximity to parks,Noise pollution","A Lot,Very Good,Moderate,20 min away,No,1980,A Little,700 square feet,5 min away,800 square feet,15 min away,Moderate","Very Little,Very Bad,Very Good,5 min away,Yes,2008,A Lot,1500 square feet,20 min away,400 square feet,25 min away,Very High",1,8888,2022-01-26 19:24:23,10881
60fe22dd264b60cfa27edffd,ma_choice_v3_pilot3,60fe22dd264b60cfa27edffd,18,0,-1,-1,"Size of home,Proximity to parks,Amount of natural light,Year building was built,Reputation of closest school,Amount of traffic,Proximity to cafes/restaurants,Quality of heat/AC system,Noise pollution,Size of yard,Washer/dryer in unit,Proximity to public transportation","1600 square feet,5 min away,A Little,2001,Bad,Very Little,10 min away,Very Bad,High,800 square feet,Yes,10 min away","700 square feet,15 min away,A Lot,1972,Very Good,A Moderate Amount,20 min away,Very Good,Low,400 square feet,No,20 min away",0,9077,2022-01-26 19:24:33,10882
60fe22dd264b60cfa27edffd,ma_choice_v3_pilot3,60fe22dd264b60cfa27edffd,19,0,-1,-1,"Amount of traffic,Amount of natural light,Washer/dryer in unit,Reputation of closest school,Year building was built,Proximity to public transportation,Size of home,Noise pollution,Proximity to parks,Proximity to cafes/restaurants,Quality of heat/AC system,Size of yard","A Little,A Moderate Amount,No,Very Good,1960,20 min away,1700 square feet,Very Low,15 min away,15 min away,Very Good,400 square feet","A Lot,Very Little,Yes,Moderate,2019,5 min away,800 square feet,High,25 min away,5 min away,Very Bad,700 square feet",0,8815,2022-01-26 19:24:43,10883
60fe22dd264b60cfa27edffd,ma_choice_v3_pilot3,60fe22dd264b60cfa27edffd,20,0,-1,-1,"Amount of natural light,Washer/dryer in unit,Proximity to cafes/restaurants,Noise pollution,Size of yard,Year building was built,Amount of traffic,Proximity to public transportation,Proximity to parks,Quality of heat/AC system,Reputation of closest school,Size of home","Very Little,No,25 min away,Moderate,200 square feet,1963,A Moderate Amount,20 min away,25 min away,Very Bad,Very Good,1400 square feet","A Moderate Amount,Yes,10 min away,Very High,800 square feet,2016,Very Little,10 min away,5 min away,Very Good,Very Bad,1800 square feet",1,7474,2022-01-26 19:24:51,10884
60fe22dd264b60cfa27edffd,ma_choice_v3_pilot3,60fe22dd264b60cfa27edffd,21,0,-1,-1,"Year building was built,Amount of traffic,Noise pollution,Washer/dryer in unit,Quality of heat/AC system,Amount of natural light,Reputation of closest school,Proximity to public transportation,Proximity to cafes/restaurants,Proximity to parks,Size of home,Size of yard","2014,A Little,High,Yes,Very Good,A Moderate Amount,Bad,5 min away,20 min away,20 min away,1000 square feet,300 square feet","1978,A Lot,Low,No,Very Bad,Very Little,Good,15 min away,10 min away,5 min away,1400 square feet,0 square feet",1,8201,2022-01-26 19:25:01,10885
60fe22dd264b60cfa27edffd,ma_choice_v3_pilot3,60fe22dd264b60cfa27edffd,22,0,-1,-1,"Size of home,Quality of heat/AC system,Amount of natural light,Noise pollution,Proximity to parks,Size of yard,Amount of traffic,Reputation of closest school,Proximity to cafes/restaurants,Proximity to public transportation,Washer/dryer in unit,Year building was built","1700 square feet,Very Bad,A Moderate Amount,Low,20 min away,900 square feet,Very Little,Moderate,20 min away,15 min away,No,1971","1000 square feet,Moderate,Very Little,Very High,5 min away,100 square feet,A Lot,Very Bad,5 min away,25 min away,Yes,2017",0,8196,2022-01-26 19:25:10,10886
60fe22dd264b60cfa27edffd,ma_choice_v3_pilot3,60fe22dd264b60cfa27edffd,23,0,-1,-1,"Amount of traffic,Proximity to cafes/restaurants,Size of yard,Proximity to parks,Proximity to public transportation,Amount of natural light,Reputation of closest school,Noise pollution,Size of home,Washer/dryer in unit,Quality of heat/AC system,Year building was built","A Moderate Amount,20 min away,800 square feet,25 min away,10 min away,Very Little,Moderate,Very High,1400 square feet,No,Very Bad,1996","Very Little,10 min away,300 square feet,5 min away,25 min away,A Moderate Amount,Very Bad,Low,1800 square feet,Yes,Very Good,1967",1,11226,2022-01-26 19:25:22,10887
60fe22dd264b60cfa27edffd,ma_choice_v3_pilot3,60fe22dd264b60cfa27edffd,24,0,-1,-1,"Proximity to parks,Size of home,Proximity to public transportation,Proximity to cafes/restaurants,Noise pollution,Washer/dryer in unit,Quality of heat/AC system,Reputation of closest school,Year building was built,Size of yard,Amount of natural light,Amount of traffic","20 min away,1100 square feet,15 min away,15 min away,High,No,Good,Very Good,1989,600 square feet,A Lot,A Little","10 min away,1500 square feet,25 min away,25 min away,Very Low,Yes,Bad,Bad,1953,400 square feet,A Little,A Lot",1,7435,2022-01-26 19:25:31,10888
60fe22dd264b60cfa27edffd,ma_choice_v3_pilot3,60fe22dd264b60cfa27edffd,25,0,-1,-1,"Washer/dryer in unit,Quality of heat/AC system,Size of home,Proximity to cafes/restaurants,Amount of natural light,Proximity to parks,Reputation of closest school,Size of yard,Proximity to public transportation,Year building was built,Noise pollution,Amount of traffic","No,Very Good,1100 square feet,5 min away,A Lot,5 min away,Very Bad,200 square feet,10 min away,1985,Moderate,A Little","Yes,Bad,1500 square feet,25 min away,A Little,25 min away,Very Good,500 square feet,25 min away,2016,Very High,A Lot",1,9088,2022-01-26 19:25:41,10889
60fe22dd264b60cfa27edffd,ma_choice_v3_pilot3,60fe22dd264b60cfa27edffd,26,0,-1,-1,"Proximity to public transportation,Quality of heat/AC system,Proximity to parks,Amount of natural light,Amount of traffic,Reputation of closest school,Year building was built,Washer/dryer in unit,Size of yard,Size of home,Noise pollution,Proximity to cafes/restaurants","10 min away,Moderate,5 min away,Very Little,A Lot,Very Good,1993,Yes,200 square feet,800 square feet,High,5 min away","20 min away,Very Good,15 min away,A Moderate Amount,A Little,Bad,1971,No,600 square feet,1200 square feet,Very Low,25 min away",1,7548,2022-01-26 19:25:49,10890
60fe22dd264b60cfa27edffd,ma_choice_v3_pilot3,60fe22dd264b60cfa27edffd,27,0,-1,-1,"Reputation of closest school,Noise pollution,Proximity to cafes/restaurants,Quality of heat/AC system,Proximity to public transportation,Amount of traffic,Washer/dryer in unit,Size of yard,Amount of natural light,Size of home,Year building was built,Proximity to parks","Very Good,Very High,20 min away,Good,10 min away,A Lot,No,400 square feet,A Moderate Amount,1700 square feet,1976,5 min away","Moderate,Very Low,10 min away,Bad,25 min away,Very Little,Yes,900 square feet,Very Little,1100 square feet,2016,15 min away",0,7847,2022-01-26 19:25:58,10891
60fe22dd264b60cfa27edffd,ma_choice_v3_pilot3,60fe22dd264b60cfa27edffd,28,0,-1,-1,"Proximity to cafes/restaurants,Size of home,Washer/dryer in unit,Reputation of closest school,Quality of heat/AC system,Amount of traffic,Size of yard,Year building was built,Amount of natural light,Proximity to public transportation,Proximity to parks,Noise pollution","15 min away,1700 square feet,No,Bad,Very Good,Very Little,600 square feet,2007,A Little,10 min away,5 min away,Low","25 min away,1000 square feet,Yes,Good,Moderate,A Lot,400 square feet,1969,A Lot,25 min away,20 min away,Very High",0,7454,2022-01-26 19:26:07,10892
60fe22dd264b60cfa27edffd,ma_choice_v3_pilot3,60fe22dd264b60cfa27edffd,29,0,-1,-1,"Noise pollution,Quality of heat/AC system,Proximity to public transportation,Size of yard,Washer/dryer in unit,Amount of natural light,Proximity to parks,Reputation of closest school,Amount of traffic,Proximity to cafes/restaurants,Size of home,Year building was built","Very Low,Very Good,20 min away,600 square feet,No,Very Little,20 min away,Moderate,A Lot,5 min away,1200 square feet,2014","Very High,Moderate,5 min away,400 square feet,Yes,A Moderate Amount,10 min away,Very Bad,Very Little,25 min away,700 square feet,1992",0,7526,2022-01-26 19:26:15,10893
60fe22dd264b60cfa27edffd,ma_choice_v3_pilot3,60fe22dd264b60cfa27edffd,30,0,-1,-1,"Reputation of closest school,Size of yard,Amount of natural light,Proximity to cafes/restaurants,Quality of heat/AC system,Washer/dryer in unit,Proximity to public transportation,Size of home,Proximity to parks,Year building was built,Noise pollution,Amount of traffic","Very Bad,400 square feet,A Little,20 min away,Bad,Yes,20 min away,1700 square feet,15 min away,2005,Low,A Little","Moderate,700 square feet,A Lot,5 min away,Good,No,10 min away,1500 square feet,5 min away,1958,High,A Lot",0,7712,2022-01-26 19:26:24,10894
60fe22dd264b60cfa27edffd,ma_choice_v3_pilot3,60fe22dd264b60cfa27edffd,31,0,-1,-1,"Proximity to cafes/restaurants,Amount of traffic,Reputation of closest school,Proximity to parks,Noise pollution,Size of home,Proximity to public transportation,Amount of natural light,Size of yard,Washer/dryer in unit,Year building was built,Quality of heat/AC system","10 min away,A Little,Very Bad,25 min away,Moderate,900 square feet,10 min away,A Lot,700 square feet,Yes,1962,Very Good","20 min away,A Lot,Moderate,10 min away,Very Low,1300 square feet,25 min away,Very Little,300 square feet,No,2011,Bad",1,7476,2022-01-26 19:26:32,10895
60fe22dd264b60cfa27edffd,ma_choice_v3_pilot3,60fe22dd264b60cfa27edffd,32,0,-1,-1,"Year building was built,Amount of traffic,Washer/dryer in unit,Proximity to public transportation,Reputation of closest school,Amount of natural light,Proximity to cafes/restaurants,Proximity to parks,Size of home,Quality of heat/AC system,Noise pollution,Size of yard","1980,A Lot,No,10 min away,Good,A Lot,15 min away,25 min away,1800 square feet,Very Good,Moderate,400 square feet","2001,Very Little,Yes,25 min away,Very Bad,A Little,25 min away,10 min away,800 square feet,Moderate,Very High,200 square feet",0,7494,2022-01-26 19:26:41,10896
60fe22dd264b60cfa27edffd,ma_choice_v3_pilot3,60fe22dd264b60cfa27edffd,33,0,-1,-1,"Size of yard,Quality of heat/AC system,Year building was built,Reputation of closest school,Amount of natural light,Proximity to parks,Proximity to public transportation,Proximity to cafes/restaurants,Washer/dryer in unit,Size of home,Noise pollution,Amount of traffic","900 square feet,Bad,1994,Bad,A Moderate Amount,5 min away,15 min away,25 min away,No,1500 square feet,Very Low,A Lot","400 square feet,Very Good,2014,Good,Very Little,20 min away,25 min away,5 min away,Yes,900 square feet,High,Very Little",0,7438,2022-01-26 19:26:49,10897
60fe22dd264b60cfa27edffd,ma_choice_v3_pilot3,60fe22dd264b60cfa27edffd,34,0,-1,-1,"Amount of natural light,Reputation of closest school,Washer/dryer in unit,Size of yard,Proximity to cafes/restaurants,Size of home,Proximity to parks,Quality of heat/AC system,Amount of traffic,Noise pollution,Proximity to public transportation,Year building was built","A Moderate Amount,Bad,No,200 square feet,10 min away,700 square feet,25 min away,Good,A Moderate Amount,Very High,20 min away,1979","Very Little,Very Good,Yes,800 square feet,25 min away,1700 square feet,5 min away,Very Bad,Very Little,Very Low,10 min away,2010",1,7719,2022-01-26 19:26:58,10898
60fe22dd264b60cfa27edffd,ma_choice_v3_pilot3,60fe22dd264b60cfa27edffd,35,0,-1,-1,"Amount of traffic,Proximity to public transportation,Quality of heat/AC system,Noise pollution,Proximity to cafes/restaurants,Size of home,Washer/dryer in unit,Proximity to parks,Size of yard,Amount of natural light,Year building was built,Reputation of closest school","Very Little,10 min away,Very Bad,Very High,10 min away,600 square feet,Yes,25 min away,400 square feet,A Little,1961,Moderate","A Moderate Amount,20 min away,Very Good,Low,25 min away,1700 square feet,No,10 min away,900 square feet,A Lot,2000,Very Bad",1,7389,2022-01-26 19:27:06,10899
60fe22dd264b60cfa27edffd,ma_choice_v3_pilot3,60fe22dd264b60cfa27edffd,36,0,-1,-1,"Noise pollution,Proximity to public transportation,Quality of heat/AC system,Washer/dryer in unit,Size of yard,Reputation of closest school,Amount of traffic,Proximity to parks,Year building was built,Proximity to cafes/restaurants,Size of home,Amount of natural light","Low,5 min away,Very Bad,No,400 square feet,Very Bad,Very Little,5 min away,1988,25 min away,1600 square feet,Very Little","High,15 min away,Good,Yes,900 square feet,Very Good,A Moderate Amount,25 min away,1964,5 min away,1100 square feet,A Moderate Amount",0,9362,2022-01-26 19:27:17,10900
60fe22dd264b60cfa27edffd,ma_choice_v3_pilot3,60fe22dd264b60cfa27edffd,37,0,-1,-1,"Year building was built,Washer/dryer in unit,Proximity to cafes/restaurants,Amount of traffic,Proximity to parks,Proximity to public transportation,Noise pollution,Size of yard,Amount of natural light,Size of home,Reputation of closest school,Quality of heat/AC system","2004,No,10 min away,A Moderate Amount,10 min away,25 min away,High,500 square feet,A Little,600 square feet,Very Good,Very Bad","1972,Yes,25 min away,Very Little,20 min away,5 min away,Low,100 square feet,A Lot,1300 square feet,Moderate,Very Good",1,7467,2022-01-26 19:27:25,10901
60fe22dd264b60cfa27edffd,ma_choice_v3_pilot3,60fe22dd264b60cfa27edffd,38,0,-1,-1,"Size of yard,Washer/dryer in unit,Noise pollution,Proximity to parks,Quality of heat/AC system,Amount of natural light,Proximity to public transportation,Year building was built,Proximity to cafes/restaurants,Reputation of closest school,Amount of traffic,Size of home","400 square feet,Yes,Moderate,25 min away,Moderate,A Little,10 min away,1970,20 min away,Moderate,Very Little,1500 square feet","700 square feet,No,Very Low,5 min away,Very Good,A Lot,20 min away,1998,10 min away,Very Good,A Moderate Amount,700 square feet",0,7391,2022-01-26 19:27:34,10902
60fe22dd264b60cfa27edffd,ma_choice_v3_pilot3,60fe22dd264b60cfa27edffd,39,0,-1,-1,"Size of yard,Amount of traffic,Proximity to parks,Year building was built,Proximity to cafes/restaurants,Reputation of closest school,Size of home,Washer/dryer in unit,Quality of heat/AC system,Amount of natural light,Noise pollution,Proximity to public transportation","600 square feet,A Little,20 min away,1952,15 min away,Good,1600 square feet,Yes,Moderate,A Moderate Amount,Moderate,10 min away","300 square feet,A Lot,5 min away,2000,5 min away,Bad,1000 square feet,No,Very Good,Very Little,Very High,20 min away",0,7697,2022-01-26 19:27:42,10903
60fe22dd264b60cfa27edffd,ma_choice_v3_pilot3,60fe22dd264b60cfa27edffd,40,0,-1,-1,"Proximity to cafes/restaurants,Noise pollution,Proximity to public transportation,Reputation of closest school,Quality of heat/AC system,Size of home,Amount of natural light,Size of yard,Washer/dryer in unit,Year building was built,Amount of traffic,Proximity to parks","15 min away,Very Low,5 min away,Moderate,Moderate,700 square feet,A Lot,900 square feet,No,1953,A Moderate Amount,10 min away","5 min away,Very High,15 min away,Very Bad,Very Good,900 square feet,Very Little,100 square feet,Yes,2003,Very Little,20 min away",1,7672,2022-01-26 19:27:51,10904
60fe22dd264b60cfa27edffd,ma_choice_v3_pilot3,60fe22dd264b60cfa27edffd,41,0,-1,-1,"Noise pollution,Size of home,Washer/dryer in unit,Proximity to parks,Quality of heat/AC system,Amount of natural light,Proximity to public transportation,Year building was built,Reputation of closest school,Proximity to cafes/restaurants,Size of yard,Amount of traffic","High,1600 square feet,Yes,20 min away,Moderate,A Little,20 min away,1999,Very Good,5 min away,800 square feet,A Lot","Low,800 square feet,No,5 min away,Very Bad,A Lot,10 min away,1956,Bad,25 min away,300 square feet,Very Little",0,9081,2022-01-26 19:28:01,10905
60fe22dd264b60cfa27edffd,ma_choice_v3_pilot3,60fe22dd264b60cfa27edffd,42,0,-1,-1,"Amount of traffic,Proximity to public transportation,Quality of heat/AC system,Year building was built,Reputation of closest school,Proximity to parks,Size of home,Amount of natural light,Size of yard,Noise pollution,Proximity to cafes/restaurants,Washer/dryer in unit","A Little,15 min away,Good,1950,Bad,25 min away,1200 square feet,Very Little,500 square feet,Very High,25 min away,No","A Lot,5 min away,Bad,2002,Very Good,5 min away,800 square feet,A Lot,200 square feet,Very Low,15 min away,Yes",0,10329,2022-01-26 19:28:13,10906
60fe22dd264b60cfa27edffd,ma_choice_v3_pilot3,60fe22dd264b60cfa27edffd,43,0,-1,-1,"Proximity to public transportation,Proximity to parks,Proximity to cafes/restaurants,Reputation of closest school,Year building was built,Size of home,Amount of traffic,Amount of natural light,Quality of heat/AC system,Size of yard,Noise pollution,Washer/dryer in unit","15 min away,5 min away,10 min away,Bad,1976,1300 square feet,A Moderate Amount,A Little,Very Bad,700 square feet,Low,No","25 min away,15 min away,20 min away,Very Good,2008,1000 square feet,Very Little,A Lot,Good,1000 square feet,High,Yes",0,7628,2022-01-26 19:28:21,10907
60fe22dd264b60cfa27edffd,ma_choice_v3_pilot3,60fe22dd264b60cfa27edffd,44,0,-1,-1,"Reputation of closest school,Amount of natural light,Quality of heat/AC system,Proximity to public transportation,Proximity to cafes/restaurants,Proximity to parks,Year building was built,Size of home,Size of yard,Washer/dryer in unit,Noise pollution,Amount of traffic","Moderate,A Moderate Amount,Moderate,25 min away,5 min away,25 min away,1986,1400 square feet,200 square feet,No,Moderate,A Moderate Amount","Very Good,Very Little,Very Good,15 min away,20 min away,15 min away,1950,900 square feet,700 square feet,Yes,Very Low,Very Little",0,7742,2022-01-26 19:28:30,10908
60fe22dd264b60cfa27edffd,ma_choice_v3_pilot3,60fe22dd264b60cfa27edffd,45,0,-1,-1,"Size of home,Quality of heat/AC system,Reputation of closest school,Proximity to parks,Proximity to cafes/restaurants,Amount of natural light,Year building was built,Noise pollution,Proximity to public transportation,Washer/dryer in unit,Size of yard,Amount of traffic","1200 square feet,Good,Bad,25 min away,15 min away,A Moderate Amount,1956,Low,5 min away,No,0 square feet,A Little","1700 square feet,Bad,Good,5 min away,25 min away,Very Little,2014,High,20 min away,Yes,300 square feet,A Lot",1,7555,2022-01-26 19:28:38,10909
60fe22dd264b60cfa27edffd,ma_choice_v3_pilot3,60fe22dd264b60cfa27edffd,46,0,-1,-1,"Amount of natural light,Amount of traffic,Noise pollution,Reputation of closest school,Proximity to cafes/restaurants,Year building was built,Quality of heat/AC system,Size of yard,Proximity to parks,Size of home,Washer/dryer in unit,Proximity to public transportation","A Little,A Lot,Low,Very Bad,15 min away,2015,Very Bad,200 square feet,5 min away,1000 square feet,No,25 min away","A Lot,Very Little,High,Good,25 min away,1980,Moderate,1000 square feet,25 min away,1400 square feet,Yes,10 min away",1,7677,2022-01-26 19:28:47,10910
60fe22dd264b60cfa27edffd,ma_choice_v3_pilot3,60fe22dd264b60cfa27edffd,47,0,-1,-1,"Amount of traffic,Amount of natural light,Size of yard,Quality of heat/AC system,Year building was built,Proximity to cafes/restaurants,Proximity to parks,Reputation of closest school,Size of home,Noise pollution,Washer/dryer in unit,Proximity to public transportation","A Moderate Amount,A Little,100 square feet,Good,2007,15 min away,20 min away,Good,800 square feet,Moderate,Yes,25 min away","Very Little,A Lot,700 square feet,Bad,1962,25 min away,10 min away,Very Bad,1400 square feet,Very Low,No,10 min away",1,7826,2022-01-26 19:28:56,10911
60fe22dd264b60cfa27edffd,ma_choice_v3_pilot3,60fe22dd264b60cfa27edffd,48,0,-1,-1,"Proximity to public transportation,Size of yard,Washer/dryer in unit,Proximity to parks,Reputation of closest school,Proximity to cafes/restaurants,Quality of heat/AC system,Amount of traffic,Size of home,Year building was built,Amount of natural light,Noise pollution","10 min away,800 square feet,No,15 min away,Good,20 min away,Very Bad,A Moderate Amount,1800 square feet,1953,Very Little,Low","25 min away,300 square feet,Yes,25 min away,Bad,5 min away,Moderate,Very Little,1300 square feet,1989,A Moderate Amount,Very High",0,8721,2022-01-26 19:29:06,10912
60fe22dd264b60cfa27edffd,ma_choice_v3_pilot3,60fe22dd264b60cfa27edffd,49,0,-1,-1,"Proximity to public transportation,Quality of heat/AC system,Reputation of closest school,Proximity to cafes/restaurants,Washer/dryer in unit,Proximity to parks,Size of home,Amount of natural light,Year building was built,Amount of traffic,Noise pollution,Size of yard","15 min away,Bad,Bad,10 min away,Yes,25 min away,1600 square feet,A Lot,1969,Very Little,High,400 square feet","25 min away,Very Good,Very Good,20 min away,No,15 min away,1000 square feet,A Little,2000,A Moderate Amount,Low,900 square feet",0,8375,2022-01-26 19:29:15,10913
60fe22dd264b60cfa27edffd,ma_choice_v3_pilot3,60fe22dd264b60cfa27edffd,50,0,-1,-1,"Quality of heat/AC system,Amount of natural light,Proximity to parks,Noise pollution,Proximity to public transportation,Size of yard,Washer/dryer in unit,Reputation of closest school,Year building was built,Amount of traffic,Proximity to cafes/restaurants,Size of home","Very Bad,A Moderate Amount,5 min away,Very High,15 min away,900 square feet,No,Very Bad,1967,A Moderate Amount,25 min away,1200 square feet","Moderate,Very Little,25 min away,Very Low,25 min away,200 square feet,Yes,Moderate,2012,Very Little,15 min away,1700 square feet",1,8571,2022-01-26 19:29:25,10914
60fe22dd264b60cfa27edffd,ma_choice_v3_pilot3,60fe22dd264b60cfa27edffd,51,0,-1,-1,"Size of yard,Amount of traffic,Reputation of closest school,Proximity to public transportation,Size of home,Proximity to parks,Amount of natural light,Noise pollution,Proximity to cafes/restaurants,Year building was built,Washer/dryer in unit,Quality of heat/AC system","700 square feet,A Little,Good,20 min away,1500 square feet,15 min away,A Moderate Amount,Very Low,25 min away,1975,No,Moderate","100 square feet,A Lot,Bad,5 min away,700 square feet,5 min away,Very Little,Moderate,15 min away,1996,Yes,Very Bad",0,8217,2022-01-26 19:29:34,10915
60fe22dd264b60cfa27edffd,ma_choice_v3_pilot3,60fe22dd264b60cfa27edffd,52,0,-1,-1,"Size of yard,Amount of traffic,Reputation of closest school,Proximity to cafes/restaurants,Proximity to parks,Quality of heat/AC system,Proximity to public transportation,Year building was built,Amount of natural light,Size of home,Noise pollution,Washer/dryer in unit","1000 square feet,A Little,Bad,25 min away,25 min away,Good,10 min away,2004,A Lot,1500 square feet,Moderate,No","200 square feet,A Lot,Very Good,15 min away,5 min away,Very Bad,20 min away,1965,A Little,800 square feet,Very High,Yes",0,9145,2022-01-26 19:29:44,10916
60fe22dd264b60cfa27edffd,ma_choice_v3_pilot3,60fe22dd264b60cfa27edffd,53,0,-1,-1,"Amount of traffic,Size of yard,Proximity to public transportation,Quality of heat/AC system,Washer/dryer in unit,Proximity to parks,Noise pollution,Size of home,Year building was built,Amount of natural light,Reputation of closest school,Proximity to cafes/restaurants","A Lot,300 square feet,15 min away,Very Good,No,20 min away,Moderate,1600 square feet,1957,Very Little,Bad,25 min away","A Little,800 square feet,25 min away,Bad,Yes,5 min away,Very Low,800 square feet,1999,A Moderate Amount,Good,10 min away",0,8637,2022-01-26 19:29:54,10917
60fe22dd264b60cfa27edffd,ma_choice_v3_pilot3,60fe22dd264b60cfa27edffd,54,0,-1,-1,"Year building was built,Amount of traffic,Reputation of closest school,Size of yard,Size of home,Quality of heat/AC system,Proximity to public transportation,Amount of natural light,Proximity to cafes/restaurants,Washer/dryer in unit,Proximity to parks,Noise pollution","1979,A Lot,Moderate,500 square feet,1000 square feet,Very Good,15 min away,A Lot,15 min away,No,25 min away,High","1952,Very Little,Very Good,0 square feet,1600 square feet,Very Bad,5 min away,Very Little,25 min away,Yes,15 min away,Very Low",1,8160,2022-01-26 19:30:03,10918
60fe22dd264b60cfa27edffd,ma_choice_v3_pilot3,60fe22dd264b60cfa27edffd,55,0,-1,-1,"Amount of traffic,Size of home,Noise pollution,Reputation of closest school,Amount of natural light,Year building was built,Proximity to parks,Proximity to public transportation,Washer/dryer in unit,Quality of heat/AC system,Proximity to cafes/restaurants,Size of yard","A Lot,800 square feet,Low,Very Bad,A Little,1963,15 min away,20 min away,No,Bad,15 min away,700 square feet","Very Little,1000 square feet,High,Very Good,A Lot,2019,25 min away,5 min away,Yes,Very Good,5 min away,200 square feet",1,7793,2022-01-26 19:30:12,10919
60fe22dd264b60cfa27edffd,ma_choice_v3_pilot3,60fe22dd264b60cfa27edffd,56,0,-1,-1,"Year building was built,Proximity to public transportation,Noise pollution,Amount of traffic,Amount of natural light,Proximity to cafes/restaurants,Reputation of closest school,Size of yard,Washer/dryer in unit,Size of home,Quality of heat/AC system,Proximity to parks","1986,5 min away,Low,A Little,Very Little,20 min away,Very Good,300 square feet,No,700 square feet,Moderate,15 min away","1964,20 min away,High,A Lot,A Lot,5 min away,Bad,700 square feet,Yes,1000 square feet,Very Good,25 min away",1,8032,2022-01-26 19:30:21,10920
60fe22dd264b60cfa27edffd,ma_choice_v3_pilot3,60fe22dd264b60cfa27edffd,57,0,-1,-1,"Quality of heat/AC system,Size of yard,Reputation of closest school,Amount of traffic,Proximity to parks,Washer/dryer in unit,Proximity to public transportation,Noise pollution,Year building was built,Proximity to cafes/restaurants,Amount of natural light,Size of home","Moderate,500 square feet,Moderate,A Lot,15 min away,No,10 min away,Moderate,2018,10 min away,A Little,1000 square feet","Very Bad,900 square feet,Very Bad,A Little,25 min away,Yes,25 min away,Very Low,1987,20 min away,A Lot,1700 square feet",1,7707,2022-01-26 19:30:29,10921
60fe22dd264b60cfa27edffd,ma_choice_v3_pilot3,60fe22dd264b60cfa27edffd,58,0,-1,-1,"Proximity to cafes/restaurants,Amount of natural light,Year building was built,Amount of traffic,Size of home,Proximity to public transportation,Quality of heat/AC system,Reputation of closest school,Washer/dryer in unit,Proximity to parks,Noise pollution,Size of yard","15 min away,Very Little,1986,A Little,1000 square feet,20 min away,Very Good,Very Bad,No,5 min away,Moderate,200 square feet","25 min away,A Lot,1950,A Lot,700 square feet,5 min away,Very Bad,Good,Yes,20 min away,Very High,600 square feet",0,7512,2022-01-26 19:30:38,10922
60fe22dd264b60cfa27edffd,ma_choice_v3_pilot3,60fe22dd264b60cfa27edffd,59,0,-1,-1,"Amount of traffic,Size of home,Noise pollution,Reputation of closest school,Proximity to cafes/restaurants,Proximity to public transportation,Proximity to parks,Washer/dryer in unit,Amount of natural light,Quality of heat/AC system,Size of yard,Year building was built","Very Little,1400 square feet,Moderate,Very Good,5 min away,25 min away,20 min away,Yes,A Little,Very Good,400 square feet,1993","A Lot,1600 square feet,Very Low,Moderate,20 min away,15 min away,10 min away,No,A Lot,Moderate,800 square feet,1963",1,7447,2022-01-26 19:30:46,10923
60fe22dd264b60cfa27edffd,ma_choice_v3_pilot3,60fe22dd264b60cfa27edffd,60,0,-1,-1,"Proximity to parks,Size of yard,Proximity to cafes/restaurants,Size of home,Proximity to public transportation,Amount of traffic,Year building was built,Noise pollution,Amount of natural light,Washer/dryer in unit,Quality of heat/AC system,Reputation of closest school","15 min away,1000 square feet,5 min away,1000 square feet,20 min away,A Little,2001,High,A Little,Yes,Very Bad,Very Bad","5 min away,300 square feet,25 min away,800 square feet,5 min away,A Lot,1967,Very Low,A Lot,No,Good,Good",0,7449,2022-01-26 19:30:55,10924
60fe22dd264b60cfa27edffd,ma_choice_v3_pilot3,60fe22dd264b60cfa27edffd,61,0,-1,-1,"Size of home,Amount of natural light,Amount of traffic,Proximity to parks,Quality of heat/AC system,Reputation of closest school,Noise pollution,Size of yard,Proximity to public transportation,Year building was built,Washer/dryer in unit,Proximity to cafes/restaurants","700 square feet,A Moderate Amount,A Moderate Amount,5 min away,Very Good,Moderate,Very High,400 square feet,15 min away,2002,Yes,25 min away","1400 square feet,Very Little,Very Little,25 min away,Very Bad,Very Good,Moderate,900 square feet,5 min away,1969,No,15 min away",1,7518,2022-01-26 19:31:03,10925
60fe22dd264b60cfa27edffd,ma_choice_v3_pilot3,60fe22dd264b60cfa27edffd,62,0,-1,-1,"Proximity to cafes/restaurants,Noise pollution,Proximity to parks,Amount of natural light,Washer/dryer in unit,Size of yard,Size of home,Amount of traffic,Quality of heat/AC system,Proximity to public transportation,Year building was built,Reputation of closest school","5 min away,Very Low,25 min away,A Little,Yes,400 square feet,800 square feet,A Moderate Amount,Moderate,25 min away,2018,Very Good","15 min away,Moderate,10 min away,A Lot,No,800 square feet,1100 square feet,Very Little,Very Bad,10 min away,1970,Very Bad",1,10367,2022-01-26 19:31:15,10926
60fe22dd264b60cfa27edffd,ma_choice_v3_pilot3,60fe22dd264b60cfa27edffd,63,0,-1,-1,"Noise pollution,Quality of heat/AC system,Size of yard,Year building was built,Washer/dryer in unit,Proximity to public transportation,Amount of traffic,Amount of natural light,Proximity to parks,Proximity to cafes/restaurants,Reputation of closest school,Size of home","Low,Very Bad,500 square feet,1957,Yes,15 min away,A Moderate Amount,A Moderate Amount,10 min away,15 min away,Moderate,1100 square feet","Very High,Good,100 square feet,1992,No,25 min away,Very Little,Very Little,20 min away,5 min away,Very Good,900 square feet",0,8738,2022-01-26 19:31:25,10927
60fe22dd264b60cfa27edffd,ma_choice_v3_pilot3,60fe22dd264b60cfa27edffd,64,0,-1,-1,"Proximity to parks,Proximity to public transportation,Year building was built,Size of yard,Amount of traffic,Quality of heat/AC system,Size of home,Washer/dryer in unit,Proximity to cafes/restaurants,Amount of natural light,Reputation of closest school,Noise pollution","10 min away,20 min away,1980,800 square feet,Very Little,Bad,700 square feet,Yes,25 min away,A Moderate Amount,Very Bad,Low","20 min away,5 min away,2013,500 square feet,A Moderate Amount,Very Good,900 square feet,No,10 min away,Very Little,Good,High",1,7453,2022-01-26 19:31:33,10928
60fe22dd264b60cfa27edffd,ma_choice_v3_pilot3,60fe22dd264b60cfa27edffd,65,0,-1,-1,"Washer/dryer in unit,Proximity to public transportation,Reputation of closest school,Amount of natural light,Amount of traffic,Proximity to cafes/restaurants,Noise pollution,Size of home,Quality of heat/AC system,Size of yard,Year building was built,Proximity to parks","No,15 min away,Very Bad,A Moderate Amount,A Moderate Amount,25 min away,Very Low,1200 square feet,Good,700 square feet,1973,5 min away","Yes,5 min away,Moderate,Very Little,Very Little,5 min away,Moderate,800 square feet,Bad,1000 square feet,2016,20 min away",0,7368,2022-01-26 19:31:41,10929
60fe22dd264b60cfa27edffd,ma_choice_v3_pilot3,60fe22dd264b60cfa27edffd,66,0,-1,-1,"Proximity to public transportation,Proximity to cafes/restaurants,Size of home,Quality of heat/AC system,Noise pollution,Washer/dryer in unit,Amount of traffic,Size of yard,Proximity to parks,Year building was built,Amount of natural light,Reputation of closest school","15 min away,20 min away,1500 square feet,Good,Moderate,Yes,A Little,600 square feet,15 min away,1998,Very Little,Very Bad","25 min away,5 min away,1100 square feet,Bad,Very Low,No,A Lot,300 square feet,25 min away,1966,A Moderate Amount,Good",0,7774,2022-01-26 19:31:50,10930
60fe22dd264b60cfa27edffd,ma_choice_v3_pilot3,60fe22dd264b60cfa27edffd,67,0,-1,-1,"Proximity to cafes/restaurants,Proximity to parks,Size of yard,Reputation of closest school,Noise pollution,Washer/dryer in unit,Quality of heat/AC system,Proximity to public transportation,Size of home,Amount of natural light,Amount of traffic,Year building was built","25 min away,20 min away,800 square feet,Bad,Very High,Yes,Moderate,25 min away,1400 square feet,Very Little,A Moderate Amount,1978","15 min away,5 min away,100 square feet,Very Good,Moderate,No,Very Good,5 min away,800 square feet,A Moderate Amount,Very Little,2011",0,8858,2022-01-26 19:32:00,10931
60fe22dd264b60cfa27edffd,ma_choice_v3_pilot3,60fe22dd264b60cfa27edffd,68,0,-1,-1,"Noise pollution,Proximity to public transportation,Year building was built,Size of yard,Washer/dryer in unit,Proximity to parks,Reputation of closest school,Amount of natural light,Amount of traffic,Size of home,Quality of heat/AC system,Proximity to cafes/restaurants","Moderate,20 min away,2002,100 square feet,Yes,15 min away,Very Bad,A Moderate Amount,A Moderate Amount,1700 square feet,Very Good,15 min away","Very High,5 min away,1973,500 square feet,No,5 min away,Moderate,Very Little,Very Little,1300 square feet,Moderate,25 min away",0,7396,2022-01-26 19:32:08,10932
60fe22dd264b60cfa27edffd,ma_choice_v3_pilot3,60fe22dd264b60cfa27edffd,69,0,-1,-1,"Proximity to cafes/restaurants,Size of home,Proximity to parks,Quality of heat/AC system,Size of yard,Year building was built,Noise pollution,Proximity to public transportation,Amount of natural light,Amount of traffic,Reputation of closest school,Washer/dryer in unit","5 min away,1600 square feet,5 min away,Very Good,900 square feet,1973,Moderate,10 min away,Very Little,A Lot,Good,No","20 min away,800 square feet,25 min away,Very Bad,300 square feet,2019,Very Low,25 min away,A Lot,Very Little,Very Bad,Yes",0,7667,2022-01-26 19:32:17,10933
60fe22dd264b60cfa27edffd,ma_choice_v3_pilot3,60fe22dd264b60cfa27edffd,70,0,-1,-1,"Proximity to parks,Reputation of closest school,Size of yard,Year building was built,Noise pollution,Proximity to cafes/restaurants,Amount of natural light,Size of home,Amount of traffic,Proximity to public transportation,Quality of heat/AC system,Washer/dryer in unit","10 min away,Moderate,300 square feet,1960,Very High,10 min away,A Lot,800 square feet,A Little,15 min away,Good,No","20 min away,Very Good,100 square feet,2003,Moderate,20 min away,A Little,1800 square feet,A Lot,5 min away,Very Bad,Yes",1,7515,2022-01-26 19:32:26,10934
60fe22dd264b60cfa27edffd,ma_choice_v3_pilot3,60fe22dd264b60cfa27edffd,71,0,-1,-1,"Size of yard,Washer/dryer in unit,Amount of natural light,Noise pollution,Size of home,Amount of traffic,Quality of heat/AC system,Proximity to public transportation,Year building was built,Proximity to cafes/restaurants,Proximity to parks,Reputation of closest school","800 square feet,No,A Little,High,600 square feet,A Little,Moderate,10 min away,1971,20 min away,20 min away,Bad","200 square feet,Yes,A Lot,Low,900 square feet,A Lot,Very Good,25 min away,2003,10 min away,5 min away,Good",1,7438,2022-01-26 19:32:34,10935
60fe22dd264b60cfa27edffd,ma_choice_v3_pilot3,60fe22dd264b60cfa27edffd,72,0,-1,-1,"Noise pollution,Proximity to public transportation,Year building was built,Proximity to cafes/restaurants,Size of yard,Amount of traffic,Reputation of closest school,Size of home,Proximity to parks,Washer/dryer in unit,Amount of natural light,Quality of heat/AC system","High,10 min away,1986,15 min away,300 square feet,A Little,Very Good,700 square feet,15 min away,Yes,A Little,Bad","Low,25 min away,1964,5 min away,600 square feet,A Lot,Very Bad,1200 square feet,5 min away,No,A Lot,Good",1,7505,2022-01-26 19:32:43,10936
60fe22dd264b60cfa27edffd,ma_choice_v3_pilot3,60fe22dd264b60cfa27edffd,73,0,-1,-1,"Quality of heat/AC system,Amount of natural light,Reputation of closest school,Noise pollution,Size of home,Size of yard,Proximity to public transportation,Amount of traffic,Proximity to cafes/restaurants,Proximity to parks,Washer/dryer in unit,Year building was built","Moderate,A Lot,Bad,Very Low,1200 square feet,800 square feet,20 min away,A Lot,25 min away,10 min away,Yes,1951","Very Bad,Very Little,Good,Moderate,1700 square feet,500 square feet,10 min away,A Little,10 min away,25 min away,No,1988",1,7993,2022-01-26 19:32:52,10937
60fe22dd264b60cfa27edffd,ma_choice_v3_pilot3,60fe22dd264b60cfa27edffd,74,0,-1,-1,"Noise pollution,Proximity to cafes/restaurants,Amount of natural light,Amount of traffic,Proximity to public transportation,Proximity to parks,Quality of heat/AC system,Year building was built,Size of home,Washer/dryer in unit,Reputation of closest school,Size of yard","High,10 min away,A Moderate Amount,Very Little,25 min away,15 min away,Good,2013,800 square feet,Yes,Very Bad,900 square feet","Low,25 min away,Very Little,A Moderate Amount,5 min away,25 min away,Very Bad,1951,1500 square feet,No,Good,300 square feet",1,8624,2022-01-26 19:33:01,10938
5dddd95d238a91d4fa1a8cf6,ma_choice_v3_pilot3,5dddd95d238a91d4fa1a8cf6,0,1,-1,-1,"Size of yard,Proximity to cafes/restaurants,Amount of natural light,Reputation of closest school,Proximity to public transportation,Year building was built,Amount of traffic,Washer/dryer in unit,Size of home,Quality of heat/AC system,Noise pollution,Proximity to parks","900 square feet,20 min away,A Little,Very Bad,15 min away,2003,Very Little,No,900 square feet,Very Good,Moderate,10 min away","200 square feet,10 min away,A Lot,Very Good,5 min away,1958,A Moderate Amount,Yes,1200 square feet,Very Bad,Very High,20 min away",0,16195,2022-01-26 19:38:58,10939
5dddd95d238a91d4fa1a8cf6,ma_choice_v3_pilot3,5dddd95d238a91d4fa1a8cf6,1,1,-1,-1,"Proximity to public transportation,Size of home,Noise pollution,Proximity to cafes/restaurants,Year building was built,Proximity to parks,Washer/dryer in unit,Amount of traffic,Amount of natural light,Reputation of closest school,Size of yard,Quality of heat/AC system","5 min away,1400 square feet,High,20 min away,1956,20 min away,No,A Moderate Amount,A Moderate Amount,Bad,400 square feet,Very Good","20 min away,700 square feet,Very Low,5 min away,1993,5 min away,Yes,Very Little,Very Little,Very Good,900 square feet,Bad",0,7623,2022-01-26 19:39:06,10940
5dddd95d238a91d4fa1a8cf6,ma_choice_v3_pilot3,5dddd95d238a91d4fa1a8cf6,2,1,-1,-1,"Year building was built,Proximity to public transportation,Washer/dryer in unit,Proximity to cafes/restaurants,Proximity to parks,Amount of traffic,Reputation of closest school,Quality of heat/AC system,Noise pollution,Size of home,Size of yard,Amount of natural light","1958,5 min away,No,15 min away,10 min away,A Moderate Amount,Good,Moderate,Moderate,1400 square feet,1000 square feet,Very Little","1989,25 min away,Yes,25 min away,20 min away,Very Little,Very Bad,Very Bad,Very High,1600 square feet,100 square feet,A Moderate Amount",0,7533,2022-01-26 19:39:15,10941
5e29ada5d441690127fb5748,ma_choice_v3_pilot3,5e29ada5d441690127fb5748,0,1,-1,-1,"Washer/dryer in unit,Year building was built,Size of yard,Reputation of closest school,Quality of heat/AC system,Proximity to public transportation,Amount of traffic,Noise pollution,Proximity to parks,Amount of natural light,Size of home,Proximity to cafes/restaurants","No,1977,500 square feet,Good,Very Bad,10 min away,A Moderate Amount,Low,25 min away,A Lot,1400 square feet,10 min away","Yes,2003,900 square feet,Very Bad,Good,25 min away,Very Little,High,15 min away,A Little,1600 square feet,25 min away",1,22664,2022-01-26 19:39:21,10942
5dddd95d238a91d4fa1a8cf6,ma_choice_v3_pilot3,5dddd95d238a91d4fa1a8cf6,3,1,-1,-1,"Proximity to cafes/restaurants,Amount of natural light,Quality of heat/AC system,Size of home,Proximity to parks,Amount of traffic,Washer/dryer in unit,Proximity to public transportation,Size of yard,Reputation of closest school,Noise pollution,Year building was built","25 min away,A Little,Very Bad,1700 square feet,20 min away,Very Little,Yes,25 min away,300 square feet,Very Good,Moderate,1969","10 min away,A Lot,Good,1100 square feet,10 min away,A Moderate Amount,No,10 min away,700 square feet,Bad,Very High,2014",1,8156,2022-01-26 19:39:24,10943
5dddd95d238a91d4fa1a8cf6,ma_choice_v3_pilot3,5dddd95d238a91d4fa1a8cf6,4,1,-1,-1,"Size of yard,Noise pollution,Amount of natural light,Quality of heat/AC system,Size of home,Proximity to parks,Reputation of closest school,Proximity to cafes/restaurants,Year building was built,Washer/dryer in unit,Proximity to public transportation,Amount of traffic","700 square feet,Very High,A Lot,Good,800 square feet,15 min away,Very Good,20 min away,1957,No,5 min away,A Lot","500 square feet,Low,A Little,Bad,1100 square feet,5 min away,Very Bad,10 min away,2000,Yes,25 min away,Very Little",1,7541,2022-01-26 19:39:32,10944
5dddd95d238a91d4fa1a8cf6,ma_choice_v3_pilot3,5dddd95d238a91d4fa1a8cf6,5,1,-1,-1,"Size of yard,Reputation of closest school,Size of home,Amount of natural light,Proximity to cafes/restaurants,Year building was built,Quality of heat/AC system,Proximity to parks,Proximity to public transportation,Noise pollution,Amount of traffic,Washer/dryer in unit","300 square feet,Moderate,1600 square feet,Very Little,20 min away,1978,Moderate,15 min away,25 min away,Low,A Moderate Amount,Yes","600 square feet,Very Good,1300 square feet,A Lot,10 min away,1953,Very Good,5 min away,5 min away,High,Very Little,No",0,9031,2022-01-26 19:39:43,10945
5dddd95d238a91d4fa1a8cf6,ma_choice_v3_pilot3,5dddd95d238a91d4fa1a8cf6,6,1,-1,-1,"Proximity to parks,Quality of heat/AC system,Reputation of closest school,Washer/dryer in unit,Amount of natural light,Proximity to cafes/restaurants,Size of yard,Proximity to public transportation,Year building was built,Amount of traffic,Noise pollution,Size of home","15 min away,Moderate,Bad,No,A Lot,15 min away,800 square feet,10 min away,1961,A Little,Moderate,1100 square feet","25 min away,Very Bad,Good,Yes,A Little,25 min away,400 square feet,25 min away,2018,A Lot,Very Low,600 square feet",0,9334,2022-01-26 19:39:53,10946
5dddd95d238a91d4fa1a8cf6,ma_choice_v3_pilot3,5dddd95d238a91d4fa1a8cf6,7,1,-1,-1,"Washer/dryer in unit,Amount of traffic,Proximity to parks,Amount of natural light,Size of yard,Size of home,Year building was built,Noise pollution,Proximity to cafes/restaurants,Proximity to public transportation,Reputation of closest school,Quality of heat/AC system","No,Very Little,20 min away,A Moderate Amount,600 square feet,1600 square feet,2017,Low,20 min away,15 min away,Moderate,Bad","Yes,A Lot,5 min away,Very Little,200 square feet,900 square feet,1997,Very High,5 min away,25 min away,Very Bad,Good",0,7528,2022-01-26 19:40:01,10947
5dddd95d238a91d4fa1a8cf6,ma_choice_v3_pilot3,5dddd95d238a91d4fa1a8cf6,8,1,-1,-1,"Year building was built,Quality of heat/AC system,Proximity to parks,Washer/dryer in unit,Noise pollution,Size of home,Size of yard,Amount of traffic,Proximity to public transportation,Amount of natural light,Reputation of closest school,Proximity to cafes/restaurants","1986,Good,10 min away,Yes,Very High,800 square feet,200 square feet,Very Little,5 min away,A Lot,Good,25 min away","1963,Bad,20 min away,No,Moderate,600 square feet,600 square feet,A Moderate Amount,15 min away,Very Little,Very Bad,10 min away",0,7692,2022-01-26 19:40:10,10948
5dddd95d238a91d4fa1a8cf6,ma_choice_v3_pilot3,5dddd95d238a91d4fa1a8cf6,9,1,-1,-1,"Amount of traffic,Proximity to parks,Quality of heat/AC system,Reputation of closest school,Size of yard,Noise pollution,Proximity to public transportation,Size of home,Amount of natural light,Washer/dryer in unit,Year building was built,Proximity to cafes/restaurants","Very Little,20 min away,Bad,Bad,800 square feet,Very High,25 min away,1500 square feet,A Lot,No,2004,5 min away","A Lot,10 min away,Good,Good,100 square feet,Low,10 min away,1300 square feet,Very Little,Yes,1974,15 min away",0,8414,2022-01-26 19:40:19,10949
5dddd95d238a91d4fa1a8cf6,ma_choice_v3_pilot3,5dddd95d238a91d4fa1a8cf6,0,0,-1,-1,"Size of home,Reputation of closest school,Amount of natural light,Proximity to cafes/restaurants,Noise pollution,Year building was built,Amount of traffic,Washer/dryer in unit,Proximity to parks,Size of yard,Quality of heat/AC system,Proximity to public transportation","800 square feet,Bad,Very Little,5 min away,Very High,1961,A Little,No,5 min away,600 square feet,Very Good,25 min away","1500 square feet,Very Good,A Lot,20 min away,Moderate,1998,A Lot,Yes,25 min away,100 square feet,Very Bad,5 min away",1,11174,2022-01-26 19:40:41,10950
5dddd95d238a91d4fa1a8cf6,ma_choice_v3_pilot3,5dddd95d238a91d4fa1a8cf6,1,0,-1,-1,"Quality of heat/AC system,Year building was built,Size of home,Washer/dryer in unit,Reputation of closest school,Proximity to parks,Amount of traffic,Noise pollution,Proximity to cafes/restaurants,Proximity to public transportation,Amount of natural light,Size of yard","Good,1989,1600 square feet,No,Bad,15 min away,A Little,High,5 min away,5 min away,Very Little,500 square feet","Bad,1961,900 square feet,Yes,Very Good,25 min away,A Lot,Low,25 min away,25 min away,A Lot,800 square feet",0,8348,2022-01-26 19:40:51,10951
5dddd95d238a91d4fa1a8cf6,ma_choice_v3_pilot3,5dddd95d238a91d4fa1a8cf6,2,0,-1,-1,"Proximity to parks,Size of home,Amount of traffic,Proximity to public transportation,Size of yard,Noise pollution,Washer/dryer in unit,Reputation of closest school,Quality of heat/AC system,Amount of natural light,Proximity to cafes/restaurants,Year building was built","20 min away,1700 square feet,A Lot,5 min away,200 square feet,Low,Yes,Bad,Very Bad,A Lot,20 min away,1986","10 min away,1000 square feet,A Little,20 min away,1000 square feet,High,No,Good,Moderate,Very Little,10 min away,1960",1,8064,2022-01-26 19:41:00,10952
5e29ada5d441690127fb5748,ma_choice_v3_pilot3,5e29ada5d441690127fb5748,1,1,-1,-1,"Proximity to cafes/restaurants,Reputation of closest school,Year building was built,Noise pollution,Amount of traffic,Proximity to public transportation,Washer/dryer in unit,Amount of natural light,Proximity to parks,Size of home,Quality of heat/AC system,Size of yard","5 min away,Very Bad,2009,Very High,A Moderate Amount,15 min away,No,A Moderate Amount,15 min away,1600 square feet,Bad,300 square feet","20 min away,Good,1961,Very Low,Very Little,5 min away,Yes,Very Little,5 min away,1200 square feet,Very Good,700 square feet",1,105979,2022-01-26 19:41:08,10953
5dddd95d238a91d4fa1a8cf6,ma_choice_v3_pilot3,5dddd95d238a91d4fa1a8cf6,3,0,-1,-1,"Reputation of closest school,Size of home,Noise pollution,Proximity to parks,Size of yard,Proximity to cafes/restaurants,Washer/dryer in unit,Amount of traffic,Quality of heat/AC system,Amount of natural light,Year building was built,Proximity to public transportation","Very Bad,1400 square feet,High,10 min away,500 square feet,25 min away,No,A Moderate Amount,Good,Very Little,1964,25 min away","Good,700 square feet,Low,20 min away,300 square feet,5 min away,Yes,Very Little,Bad,A Moderate Amount,1994,15 min away",0,8246,2022-01-26 19:41:09,10954
5dddd95d238a91d4fa1a8cf6,ma_choice_v3_pilot3,5dddd95d238a91d4fa1a8cf6,4,0,-1,-1,"Proximity to cafes/restaurants,Quality of heat/AC system,Proximity to public transportation,Reputation of closest school,Amount of traffic,Size of home,Year building was built,Washer/dryer in unit,Amount of natural light,Proximity to parks,Size of yard,Noise pollution","20 min away,Moderate,20 min away,Moderate,Very Little,800 square feet,1983,Yes,A Moderate Amount,10 min away,1000 square feet,Very High","5 min away,Very Bad,10 min away,Very Good,A Moderate Amount,1200 square feet,2013,No,Very Little,25 min away,0 square feet,Low",1,8490,2022-01-26 19:41:19,10955
5dddd95d238a91d4fa1a8cf6,ma_choice_v3_pilot3,5dddd95d238a91d4fa1a8cf6,5,0,-1,-1,"Reputation of closest school,Quality of heat/AC system,Amount of natural light,Amount of traffic,Proximity to public transportation,Size of home,Proximity to parks,Noise pollution,Washer/dryer in unit,Size of yard,Proximity to cafes/restaurants,Year building was built","Very Good,Moderate,A Moderate Amount,A Little,15 min away,1600 square feet,25 min away,Moderate,No,500 square feet,25 min away,1989","Moderate,Very Good,Very Little,A Lot,25 min away,1300 square feet,10 min away,Very High,Yes,0 square feet,5 min away,1951",0,7519,2022-01-26 19:41:27,10956
5dddd95d238a91d4fa1a8cf6,ma_choice_v3_pilot3,5dddd95d238a91d4fa1a8cf6,6,0,-1,-1,"Washer/dryer in unit,Size of home,Year building was built,Amount of traffic,Size of yard,Quality of heat/AC system,Reputation of closest school,Amount of natural light,Proximity to parks,Proximity to cafes/restaurants,Noise pollution,Proximity to public transportation","No,1700 square feet,2002,Very Little,700 square feet,Moderate,Very Good,A Moderate Amount,25 min away,5 min away,Very Low,15 min away","Yes,1000 square feet,1962,A Lot,200 square feet,Very Bad,Bad,Very Little,5 min away,20 min away,Moderate,5 min away",0,8253,2022-01-26 19:41:36,10957
5dddd95d238a91d4fa1a8cf6,ma_choice_v3_pilot3,5dddd95d238a91d4fa1a8cf6,7,0,-1,-1,"Size of home,Year building was built,Reputation of closest school,Amount of traffic,Quality of heat/AC system,Washer/dryer in unit,Size of yard,Proximity to parks,Noise pollution,Proximity to cafes/restaurants,Proximity to public transportation,Amount of natural light","1800 square feet,1960,Bad,Very Little,Very Bad,Yes,700 square feet,20 min away,Very High,10 min away,15 min away,Very Little","1500 square feet,2002,Very Good,A Moderate Amount,Moderate,No,300 square feet,5 min away,Moderate,20 min away,5 min away,A Moderate Amount",0,8812,2022-01-26 19:41:46,10958
5dddd95d238a91d4fa1a8cf6,ma_choice_v3_pilot3,5dddd95d238a91d4fa1a8cf6,8,0,-1,-1,"Proximity to parks,Quality of heat/AC system,Amount of natural light,Proximity to cafes/restaurants,Proximity to public transportation,Size of home,Noise pollution,Washer/dryer in unit,Reputation of closest school,Size of yard,Year building was built,Amount of traffic","5 min away,Good,A Moderate Amount,15 min away,10 min away,1200 square feet,Moderate,Yes,Bad,100 square feet,1963,A Little","25 min away,Bad,Very Little,25 min away,20 min away,900 square feet,Very Low,No,Good,600 square feet,1990,A Lot",0,8024,2022-01-26 19:41:55,10959
5dddd95d238a91d4fa1a8cf6,ma_choice_v3_pilot3,5dddd95d238a91d4fa1a8cf6,9,0,-1,-1,"Quality of heat/AC system,Amount of natural light,Proximity to public transportation,Year building was built,Proximity to cafes/restaurants,Amount of traffic,Noise pollution,Size of home,Size of yard,Washer/dryer in unit,Reputation of closest school,Proximity to parks","Very Bad,A Little,25 min away,1951,20 min away,A Moderate Amount,Very High,1100 square feet,200 square feet,Yes,Very Bad,5 min away","Good,A Lot,5 min away,1990,5 min away,Very Little,Moderate,1300 square feet,900 square feet,No,Good,15 min away",1,8214,2022-01-26 19:42:05,10960
5dddd95d238a91d4fa1a8cf6,ma_choice_v3_pilot3,5dddd95d238a91d4fa1a8cf6,10,0,-1,-1,"Year building was built,Amount of traffic,Proximity to public transportation,Proximity to parks,Proximity to cafes/restaurants,Washer/dryer in unit,Amount of natural light,Noise pollution,Reputation of closest school,Quality of heat/AC system,Size of yard,Size of home","1953,A Moderate Amount,5 min away,20 min away,5 min away,No,A Lot,Very Low,Very Good,Moderate,400 square feet,900 square feet","1981,Very Little,25 min away,10 min away,20 min away,Yes,A Little,Moderate,Very Bad,Very Bad,900 square feet,1400 square feet",1,7577,2022-01-26 19:42:13,10961
5dddd95d238a91d4fa1a8cf6,ma_choice_v3_pilot3,5dddd95d238a91d4fa1a8cf6,11,0,-1,-1,"Size of yard,Reputation of closest school,Proximity to cafes/restaurants,Amount of traffic,Amount of natural light,Noise pollution,Proximity to public transportation,Washer/dryer in unit,Size of home,Quality of heat/AC system,Year building was built,Proximity to parks","900 square feet,Moderate,25 min away,A Moderate Amount,A Little,Very High,25 min away,No,800 square feet,Very Bad,1977,20 min away","0 square feet,Very Good,10 min away,Very Little,A Lot,Very Low,5 min away,Yes,1600 square feet,Very Good,2013,5 min away",1,8924,2022-01-26 19:42:23,10962
5dddd95d238a91d4fa1a8cf6,ma_choice_v3_pilot3,5dddd95d238a91d4fa1a8cf6,12,0,-1,-1,"Amount of natural light,Year building was built,Noise pollution,Proximity to cafes/restaurants,Amount of traffic,Quality of heat/AC system,Size of yard,Reputation of closest school,Washer/dryer in unit,Proximity to parks,Size of home,Proximity to public transportation","A Little,1965,Very Low,15 min away,A Little,Bad,900 square feet,Bad,Yes,25 min away,1200 square feet,25 min away","A Lot,1999,Very High,25 min away,A Lot,Very Good,100 square feet,Very Good,No,10 min away,1600 square feet,5 min away",1,8070,2022-01-26 19:42:32,10963
5dddd95d238a91d4fa1a8cf6,ma_choice_v3_pilot3,5dddd95d238a91d4fa1a8cf6,13,0,-1,-1,"Size of home,Proximity to public transportation,Amount of natural light,Reputation of closest school,Proximity to cafes/restaurants,Amount of traffic,Quality of heat/AC system,Noise pollution,Washer/dryer in unit,Year building was built,Proximity to parks,Size of yard","800 square feet,5 min away,A Moderate Amount,Very Good,10 min away,A Moderate Amount,Very Bad,Very Low,Yes,1967,5 min away,500 square feet","600 square feet,25 min away,Very Little,Moderate,25 min away,Very Little,Good,Moderate,No,1990,15 min away,100 square feet",0,8206,2022-01-26 19:42:41,10964
5dddd95d238a91d4fa1a8cf6,ma_choice_v3_pilot3,5dddd95d238a91d4fa1a8cf6,14,0,-1,-1,"Noise pollution,Amount of traffic,Quality of heat/AC system,Size of home,Year building was built,Size of yard,Amount of natural light,Reputation of closest school,Proximity to parks,Washer/dryer in unit,Proximity to cafes/restaurants,Proximity to public transportation","Low,A Little,Bad,800 square feet,2006,700 square feet,A Little,Moderate,25 min away,Yes,5 min away,15 min away","High,A Lot,Good,1600 square feet,1982,200 square feet,A Lot,Very Bad,5 min away,No,20 min away,25 min away",1,7786,2022-01-26 19:42:50,10965
5dddd95d238a91d4fa1a8cf6,ma_choice_v3_pilot3,5dddd95d238a91d4fa1a8cf6,15,0,-1,-1,"Amount of natural light,Proximity to cafes/restaurants,Proximity to public transportation,Washer/dryer in unit,Size of yard,Noise pollution,Proximity to parks,Size of home,Amount of traffic,Year building was built,Quality of heat/AC system,Reputation of closest school","A Little,10 min away,15 min away,Yes,400 square feet,Moderate,15 min away,1600 square feet,Very Little,1981,Good,Bad","A Lot,20 min away,25 min away,No,800 square feet,Very Low,25 min away,1000 square feet,A Moderate Amount,1951,Bad,Very Good",0,10798,2022-01-26 19:43:02,10966
5dddd95d238a91d4fa1a8cf6,ma_choice_v3_pilot3,5dddd95d238a91d4fa1a8cf6,16,0,-1,-1,"Size of home,Proximity to public transportation,Proximity to parks,Amount of natural light,Reputation of closest school,Amount of traffic,Size of yard,Washer/dryer in unit,Noise pollution,Proximity to cafes/restaurants,Year building was built,Quality of heat/AC system","1500 square feet,20 min away,25 min away,A Lot,Very Good,Very Little,100 square feet,Yes,Low,20 min away,1995,Very Good","1200 square feet,5 min away,15 min away,A Little,Bad,A Moderate Amount,800 square feet,No,High,5 min away,1971,Moderate",0,7767,2022-01-26 19:43:11,10967
5dddd95d238a91d4fa1a8cf6,ma_choice_v3_pilot3,5dddd95d238a91d4fa1a8cf6,17,0,-1,-1,"Proximity to parks,Year building was built,Washer/dryer in unit,Size of home,Size of yard,Quality of heat/AC system,Amount of natural light,Noise pollution,Proximity to cafes/restaurants,Proximity to public transportation,Amount of traffic,Reputation of closest school","10 min away,1951,No,1000 square feet,800 square feet,Moderate,A Lot,Very High,25 min away,15 min away,A Little,Very Good","20 min away,1986,Yes,600 square feet,200 square feet,Very Bad,A Little,Low,15 min away,5 min away,A Lot,Moderate",0,7463,2022-01-26 19:43:19,10968
5dddd95d238a91d4fa1a8cf6,ma_choice_v3_pilot3,5dddd95d238a91d4fa1a8cf6,18,0,-1,-1,"Amount of traffic,Noise pollution,Size of yard,Quality of heat/AC system,Amount of natural light,Washer/dryer in unit,Year building was built,Proximity to public transportation,Size of home,Proximity to cafes/restaurants,Reputation of closest school,Proximity to parks","A Moderate Amount,Very Low,700 square feet,Moderate,Very Little,No,1990,5 min away,1100 square feet,20 min away,Very Bad,5 min away","Very Little,High,100 square feet,Very Good,A Lot,Yes,1957,15 min away,1500 square feet,5 min away,Very Good,20 min away",0,8754,2022-01-26 19:43:29,10969
5dddd95d238a91d4fa1a8cf6,ma_choice_v3_pilot3,5dddd95d238a91d4fa1a8cf6,19,0,-1,-1,"Size of home,Quality of heat/AC system,Size of yard,Amount of traffic,Noise pollution,Washer/dryer in unit,Proximity to cafes/restaurants,Year building was built,Proximity to public transportation,Reputation of closest school,Proximity to parks,Amount of natural light","700 square feet,Very Bad,700 square feet,Very Little,Very Low,Yes,10 min away,1972,5 min away,Bad,5 min away,A Lot","1100 square feet,Moderate,400 square feet,A Lot,Very High,No,20 min away,1999,20 min away,Very Good,20 min away,Very Little",1,7756,2022-01-26 19:43:38,10970
5dddd95d238a91d4fa1a8cf6,ma_choice_v3_pilot3,5dddd95d238a91d4fa1a8cf6,20,0,-1,-1,"Size of yard,Amount of natural light,Noise pollution,Size of home,Amount of traffic,Proximity to parks,Proximity to cafes/restaurants,Washer/dryer in unit,Proximity to public transportation,Reputation of closest school,Quality of heat/AC system,Year building was built","600 square feet,A Lot,Low,900 square feet,Very Little,5 min away,15 min away,No,15 min away,Good,Good,2000","200 square feet,A Little,Very High,1400 square feet,A Moderate Amount,25 min away,5 min away,Yes,25 min away,Very Bad,Very Bad,1953",0,8066,2022-01-26 19:43:47,10971
5e29ada5d441690127fb5748,ma_choice_v3_pilot3,5e29ada5d441690127fb5748,2,1,-1,-1,"Quality of heat/AC system,Reputation of closest school,Year building was built,Amount of traffic,Noise pollution,Size of yard,Proximity to public transportation,Size of home,Proximity to parks,Proximity to cafes/restaurants,Washer/dryer in unit,Amount of natural light","Good,Good,2010,A Lot,Low,300 square feet,10 min away,1300 square feet,5 min away,5 min away,No,A Lot","Very Bad,Bad,1984,A Little,High,700 square feet,25 min away,800 square feet,15 min away,15 min away,Yes,Very Little",0,164511,2022-01-26 19:43:54,10972
5dddd95d238a91d4fa1a8cf6,ma_choice_v3_pilot3,5dddd95d238a91d4fa1a8cf6,21,0,-1,-1,"Proximity to parks,Washer/dryer in unit,Proximity to public transportation,Noise pollution,Amount of traffic,Size of yard,Size of home,Quality of heat/AC system,Reputation of closest school,Year building was built,Proximity to cafes/restaurants,Amount of natural light","20 min away,No,10 min away,Very Low,A Lot,700 square feet,700 square feet,Bad,Moderate,1994,5 min away,A Little","5 min away,Yes,20 min away,Very High,A Little,100 square feet,1300 square feet,Good,Very Good,1968,15 min away,A Lot",1,7384,2022-01-26 19:43:55,10973
5dddd95d238a91d4fa1a8cf6,ma_choice_v3_pilot3,5dddd95d238a91d4fa1a8cf6,22,0,-1,-1,"Year building was built,Noise pollution,Size of yard,Proximity to public transportation,Reputation of closest school,Size of home,Washer/dryer in unit,Proximity to parks,Amount of traffic,Proximity to cafes/restaurants,Amount of natural light,Quality of heat/AC system","2010,Very High,1000 square feet,15 min away,Very Good,1500 square feet,No,5 min away,A Little,25 min away,A Moderate Amount,Very Good","1971,Moderate,300 square feet,5 min away,Moderate,600 square feet,Yes,25 min away,A Lot,10 min away,Very Little,Very Bad",0,7684,2022-01-26 19:44:04,10974
5dddd95d238a91d4fa1a8cf6,ma_choice_v3_pilot3,5dddd95d238a91d4fa1a8cf6,23,0,-1,-1,"Proximity to cafes/restaurants,Quality of heat/AC system,Reputation of closest school,Size of yard,Amount of traffic,Proximity to public transportation,Noise pollution,Amount of natural light,Washer/dryer in unit,Proximity to parks,Year building was built,Size of home","5 min away,Very Good,Bad,700 square feet,A Moderate Amount,20 min away,Low,A Moderate Amount,No,5 min away,2000,1000 square feet","25 min away,Very Bad,Good,500 square feet,Very Little,5 min away,Very High,Very Little,Yes,20 min away,1962,1800 square feet",1,7447,2022-01-26 19:44:12,10975
5dddd95d238a91d4fa1a8cf6,ma_choice_v3_pilot3,5dddd95d238a91d4fa1a8cf6,24,0,-1,-1,"Size of yard,Noise pollution,Size of home,Washer/dryer in unit,Reputation of closest school,Amount of natural light,Proximity to cafes/restaurants,Amount of traffic,Proximity to public transportation,Proximity to parks,Year building was built,Quality of heat/AC system","300 square feet,Moderate,1000 square feet,Yes,Very Bad,A Lot,5 min away,A Lot,5 min away,10 min away,1974,Very Bad","900 square feet,Very High,1200 square feet,No,Moderate,Very Little,25 min away,Very Little,20 min away,20 min away,2003,Very Good",1,7478,2022-01-26 19:44:21,10976
5dddd95d238a91d4fa1a8cf6,ma_choice_v3_pilot3,5dddd95d238a91d4fa1a8cf6,25,0,-1,-1,"Reputation of closest school,Amount of traffic,Quality of heat/AC system,Year building was built,Noise pollution,Proximity to public transportation,Proximity to parks,Size of home,Amount of natural light,Size of yard,Washer/dryer in unit,Proximity to cafes/restaurants","Very Bad,Very Little,Bad,1980,High,20 min away,5 min away,800 square feet,A Lot,400 square feet,No,5 min away","Moderate,A Moderate Amount,Good,1950,Very Low,5 min away,15 min away,1400 square feet,Very Little,0 square feet,Yes,20 min away",1,8651,2022-01-26 19:44:30,10977
5dddd95d238a91d4fa1a8cf6,ma_choice_v3_pilot3,5dddd95d238a91d4fa1a8cf6,26,0,-1,-1,"Reputation of closest school,Proximity to cafes/restaurants,Amount of traffic,Noise pollution,Washer/dryer in unit,Year building was built,Size of yard,Proximity to public transportation,Size of home,Amount of natural light,Quality of heat/AC system,Proximity to parks","Very Good,5 min away,A Lot,Moderate,Yes,2016,200 square feet,20 min away,700 square feet,A Lot,Very Good,25 min away","Moderate,20 min away,Very Little,Very Low,No,1995,600 square feet,5 min away,1400 square feet,Very Little,Moderate,10 min away",0,9207,2022-01-26 19:44:41,10978
5dddd95d238a91d4fa1a8cf6,ma_choice_v3_pilot3,5dddd95d238a91d4fa1a8cf6,27,0,-1,-1,"Size of home,Year building was built,Washer/dryer in unit,Reputation of closest school,Proximity to cafes/restaurants,Size of yard,Noise pollution,Quality of heat/AC system,Amount of natural light,Amount of traffic,Proximity to public transportation,Proximity to parks","1600 square feet,1950,No,Moderate,15 min away,100 square feet,Very High,Moderate,A Lot,A Lot,20 min away,5 min away","1200 square feet,1998,Yes,Very Bad,5 min away,900 square feet,Low,Very Bad,A Little,A Little,10 min away,20 min away",0,8226,2022-01-26 19:44:50,10979
5dddd95d238a91d4fa1a8cf6,ma_choice_v3_pilot3,5dddd95d238a91d4fa1a8cf6,28,0,-1,-1,"Reputation of closest school,Proximity to cafes/restaurants,Amount of traffic,Size of home,Size of yard,Year building was built,Proximity to parks,Proximity to public transportation,Washer/dryer in unit,Amount of natural light,Quality of heat/AC system,Noise pollution","Very Bad,20 min away,A Little,1500 square feet,100 square feet,2015,25 min away,25 min away,Yes,A Moderate Amount,Good,Low","Very Good,10 min away,A Lot,700 square feet,400 square feet,1992,10 min away,5 min away,No,Very Little,Bad,High",0,7418,2022-01-26 19:44:58,10980
5dddd95d238a91d4fa1a8cf6,ma_choice_v3_pilot3,5dddd95d238a91d4fa1a8cf6,29,0,-1,-1,"Amount of traffic,Size of yard,Quality of heat/AC system,Noise pollution,Proximity to parks,Washer/dryer in unit,Size of home,Year building was built,Proximity to public transportation,Proximity to cafes/restaurants,Amount of natural light,Reputation of closest school","A Moderate Amount,100 square feet,Very Good,Very High,5 min away,Yes,1200 square feet,1966,5 min away,15 min away,Very Little,Good","Very Little,300 square feet,Bad,Moderate,20 min away,No,1400 square feet,2001,25 min away,25 min away,A Lot,Bad",1,9360,2022-01-26 19:45:09,10981
5dddd95d238a91d4fa1a8cf6,ma_choice_v3_pilot3,5dddd95d238a91d4fa1a8cf6,30,0,-1,-1,"Washer/dryer in unit,Quality of heat/AC system,Proximity to parks,Size of yard,Year building was built,Amount of natural light,Reputation of closest school,Proximity to cafes/restaurants,Size of home,Proximity to public transportation,Noise pollution,Amount of traffic","No,Bad,20 min away,600 square feet,1961,A Little,Very Bad,25 min away,800 square feet,10 min away,Very High,A Lot","Yes,Very Good,5 min away,400 square feet,1987,A Lot,Very Good,10 min away,1100 square feet,25 min away,Low,A Little",1,7831,2022-01-26 19:45:17,10982
5dddd95d238a91d4fa1a8cf6,ma_choice_v3_pilot3,5dddd95d238a91d4fa1a8cf6,31,0,-1,-1,"Quality of heat/AC system,Year building was built,Amount of natural light,Size of yard,Proximity to cafes/restaurants,Washer/dryer in unit,Proximity to parks,Amount of traffic,Proximity to public transportation,Reputation of closest school,Noise pollution,Size of home","Moderate,1963,A Little,0 square feet,15 min away,Yes,20 min away,A Little,5 min away,Very Good,Very Low,1600 square feet","Very Bad,2003,A Lot,900 square feet,25 min away,No,10 min away,A Lot,15 min away,Moderate,Moderate,1200 square feet",0,7419,2022-01-26 19:45:26,10983
5dddd95d238a91d4fa1a8cf6,ma_choice_v3_pilot3,5dddd95d238a91d4fa1a8cf6,32,0,-1,-1,"Quality of heat/AC system,Proximity to parks,Washer/dryer in unit,Amount of traffic,Amount of natural light,Size of home,Proximity to cafes/restaurants,Proximity to public transportation,Size of yard,Year building was built,Noise pollution,Reputation of closest school","Very Good,20 min away,Yes,A Little,A Moderate Amount,1300 square feet,15 min away,20 min away,900 square feet,1963,Very High,Very Good","Very Bad,5 min away,No,A Lot,Very Little,900 square feet,5 min away,5 min away,200 square feet,1993,Very Low,Moderate",0,10037,2022-01-26 19:45:37,10984
5dddd95d238a91d4fa1a8cf6,ma_choice_v3_pilot3,5dddd95d238a91d4fa1a8cf6,33,0,-1,-1,"Quality of heat/AC system,Size of yard,Amount of natural light,Year building was built,Washer/dryer in unit,Noise pollution,Proximity to parks,Reputation of closest school,Proximity to public transportation,Amount of traffic,Size of home,Proximity to cafes/restaurants","Bad,100 square feet,A Little,1972,Yes,Low,10 min away,Good,10 min away,A Moderate Amount,1300 square feet,10 min away","Good,400 square feet,A Lot,2012,No,Very High,20 min away,Bad,25 min away,Very Little,800 square feet,25 min away",0,7992,2022-01-26 19:45:46,10985
5e29ada5d441690127fb5748,ma_choice_v3_pilot3,5e29ada5d441690127fb5748,3,1,-1,-1,"Washer/dryer in unit,Proximity to public transportation,Amount of traffic,Reputation of closest school,Year building was built,Proximity to parks,Amount of natural light,Proximity to cafes/restaurants,Size of home,Noise pollution,Quality of heat/AC system,Size of yard","No,5 min away,A Little,Good,1958,5 min away,A Little,10 min away,1100 square feet,Very High,Good,700 square feet","Yes,20 min away,A Lot,Bad,1987,15 min away,A Lot,20 min away,1500 square feet,Low,Very Bad,1000 square feet",1,114073,2022-01-26 19:45:49,10986
5dddd95d238a91d4fa1a8cf6,ma_choice_v3_pilot3,5dddd95d238a91d4fa1a8cf6,34,0,-1,-1,"Noise pollution,Amount of natural light,Size of yard,Proximity to parks,Year building was built,Amount of traffic,Size of home,Proximity to public transportation,Quality of heat/AC system,Proximity to cafes/restaurants,Reputation of closest school,Washer/dryer in unit","Moderate,A Moderate Amount,700 square feet,25 min away,1975,A Lot,900 square feet,20 min away,Bad,10 min away,Very Bad,Yes","Very Low,Very Little,400 square feet,15 min away,2016,A Little,1700 square feet,10 min away,Good,20 min away,Very Good,No",1,8477,2022-01-26 19:45:55,10987
5dddd95d238a91d4fa1a8cf6,ma_choice_v3_pilot3,5dddd95d238a91d4fa1a8cf6,35,0,-1,-1,"Washer/dryer in unit,Proximity to parks,Quality of heat/AC system,Noise pollution,Year building was built,Reputation of closest school,Amount of natural light,Proximity to public transportation,Size of home,Size of yard,Proximity to cafes/restaurants,Amount of traffic","No,10 min away,Very Bad,Very Low,1964,Moderate,A Lot,20 min away,1000 square feet,300 square feet,10 min away,A Lot","Yes,25 min away,Good,Very High,1993,Very Good,A Little,5 min away,1700 square feet,600 square feet,25 min away,A Little",1,7500,2022-01-26 19:46:04,10988
5e29ada5d441690127fb5748,ma_choice_v3_pilot3,5e29ada5d441690127fb5748,4,1,-1,-1,"Amount of natural light,Washer/dryer in unit,Quality of heat/AC system,Proximity to cafes/restaurants,Year building was built,Reputation of closest school,Proximity to parks,Size of yard,Proximity to public transportation,Noise pollution,Size of home,Amount of traffic","A Little,No,Bad,5 min away,1956,Very Bad,10 min away,500 square feet,25 min away,Very High,700 square feet,A Lot","A Lot,Yes,Good,15 min away,1978,Moderate,25 min away,900 square feet,15 min away,Moderate,1700 square feet,A Little",1,15350,2022-01-26 19:46:05,10989
5dddd95d238a91d4fa1a8cf6,ma_choice_v3_pilot3,5dddd95d238a91d4fa1a8cf6,36,0,-1,-1,"Proximity to cafes/restaurants,Quality of heat/AC system,Amount of natural light,Amount of traffic,Year building was built,Size of home,Reputation of closest school,Noise pollution,Proximity to public transportation,Size of yard,Washer/dryer in unit,Proximity to parks","25 min away,Good,A Lot,A Little,1975,1700 square feet,Good,Very Low,20 min away,600 square feet,No,10 min away","10 min away,Bad,A Little,A Lot,2010,1100 square feet,Bad,Very High,5 min away,100 square feet,Yes,25 min away",0,8348,2022-01-26 19:46:13,10990
5dddd95d238a91d4fa1a8cf6,ma_choice_v3_pilot3,5dddd95d238a91d4fa1a8cf6,37,0,-1,-1,"Proximity to cafes/restaurants,Size of home,Proximity to public transportation,Amount of traffic,Year building was built,Proximity to parks,Quality of heat/AC system,Noise pollution,Washer/dryer in unit,Amount of natural light,Reputation of closest school,Size of yard","15 min away,1800 square feet,10 min away,Very Little,1955,5 min away,Very Bad,Low,Yes,A Little,Good,300 square feet","25 min away,1500 square feet,25 min away,A Lot,1986,15 min away,Good,Very High,No,A Lot,Very Bad,100 square feet",0,8956,2022-01-26 19:46:23,10991
5dddd95d238a91d4fa1a8cf6,ma_choice_v3_pilot3,5dddd95d238a91d4fa1a8cf6,38,0,-1,-1,"Proximity to cafes/restaurants,Amount of natural light,Size of yard,Size of home,Proximity to parks,Reputation of closest school,Quality of heat/AC system,Washer/dryer in unit,Amount of traffic,Noise pollution,Proximity to public transportation,Year building was built","20 min away,A Little,900 square feet,1100 square feet,25 min away,Moderate,Very Bad,No,A Little,Moderate,25 min away,1995","5 min away,A Lot,300 square feet,600 square feet,10 min away,Very Good,Very Good,Yes,A Lot,Very Low,5 min away,1951",0,8385,2022-01-26 19:46:33,10992
5e29ada5d441690127fb5748,ma_choice_v3_pilot3,5e29ada5d441690127fb5748,5,1,-1,-1,"Size of home,Amount of traffic,Proximity to public transportation,Year building was built,Quality of heat/AC system,Proximity to cafes/restaurants,Noise pollution,Proximity to parks,Washer/dryer in unit,Reputation of closest school,Size of yard,Amount of natural light","1600 square feet,Very Little,20 min away,1964,Moderate,20 min away,Very High,5 min away,Yes,Moderate,800 square feet,A Moderate Amount","800 square feet,A Lot,10 min away,2014,Very Bad,5 min away,Low,15 min away,No,Very Bad,400 square feet,Very Little",0,27102,2022-01-26 19:46:33,10993
5dddd95d238a91d4fa1a8cf6,ma_choice_v3_pilot3,5dddd95d238a91d4fa1a8cf6,39,0,-1,-1,"Reputation of closest school,Year building was built,Amount of traffic,Quality of heat/AC system,Proximity to cafes/restaurants,Proximity to parks,Washer/dryer in unit,Amount of natural light,Size of home,Proximity to public transportation,Size of yard,Noise pollution","Very Bad,1954,A Moderate Amount,Moderate,15 min away,5 min away,Yes,Very Little,600 square feet,25 min away,200 square feet,Very High","Moderate,1986,Very Little,Very Good,5 min away,15 min away,No,A Lot,1300 square feet,15 min away,500 square feet,Moderate",1,7422,2022-01-26 19:46:41,10994
5dddd95d238a91d4fa1a8cf6,ma_choice_v3_pilot3,5dddd95d238a91d4fa1a8cf6,40,0,-1,-1,"Proximity to cafes/restaurants,Proximity to public transportation,Noise pollution,Quality of heat/AC system,Size of home,Reputation of closest school,Size of yard,Amount of traffic,Washer/dryer in unit,Proximity to parks,Year building was built,Amount of natural light","5 min away,15 min away,Very Low,Moderate,800 square feet,Very Good,400 square feet,A Little,Yes,25 min away,1956,A Moderate Amount","20 min away,5 min away,High,Very Bad,1400 square feet,Bad,100 square feet,A Lot,No,10 min away,1993,Very Little",1,9304,2022-01-26 19:46:51,10995
5dddd95d238a91d4fa1a8cf6,ma_choice_v3_pilot3,5dddd95d238a91d4fa1a8cf6,41,0,-1,-1,"Size of home,Washer/dryer in unit,Proximity to parks,Amount of natural light,Reputation of closest school,Amount of traffic,Size of yard,Noise pollution,Year building was built,Proximity to public transportation,Proximity to cafes/restaurants,Quality of heat/AC system","1100 square feet,No,20 min away,A Little,Very Good,Very Little,0 square feet,Very High,1985,20 min away,5 min away,Very Bad","1700 square feet,Yes,5 min away,A Lot,Bad,A Moderate Amount,900 square feet,Moderate,2013,10 min away,25 min away,Moderate",1,8720,2022-01-26 19:47:01,10996
5e29ada5d441690127fb5748,ma_choice_v3_pilot3,5e29ada5d441690127fb5748,6,1,-1,-1,"Size of home,Proximity to cafes/restaurants,Year building was built,Quality of heat/AC system,Size of yard,Amount of natural light,Noise pollution,Proximity to parks,Reputation of closest school,Amount of traffic,Proximity to public transportation,Washer/dryer in unit","1700 square feet,20 min away,2008,Moderate,900 square feet,A Little,Very High,15 min away,Very Bad,Very Little,15 min away,No","900 square feet,10 min away,1960,Very Good,0 square feet,A Lot,Moderate,25 min away,Moderate,A Lot,5 min away,Yes",0,30421,2022-01-26 19:47:05,10997
5dddd95d238a91d4fa1a8cf6,ma_choice_v3_pilot3,5dddd95d238a91d4fa1a8cf6,42,0,-1,-1,"Amount of traffic,Proximity to parks,Proximity to public transportation,Amount of natural light,Year building was built,Proximity to cafes/restaurants,Washer/dryer in unit,Noise pollution,Quality of heat/AC system,Size of yard,Size of home,Reputation of closest school","A Lot,10 min away,20 min away,Very Little,2011,15 min away,Yes,Moderate,Moderate,500 square feet,1200 square feet,Very Good","A Little,20 min away,5 min away,A Lot,1969,5 min away,No,Very High,Very Bad,700 square feet,1700 square feet,Moderate",1,9287,2022-01-26 19:47:11,10998
5e29ada5d441690127fb5748,ma_choice_v3_pilot3,5e29ada5d441690127fb5748,7,1,-1,-1,"Washer/dryer in unit,Year building was built,Size of yard,Size of home,Noise pollution,Proximity to cafes/restaurants,Amount of traffic,Reputation of closest school,Quality of heat/AC system,Amount of natural light,Proximity to parks,Proximity to public transportation","Yes,1996,700 square feet,1300 square feet,Very Low,20 min away,Very Little,Good,Moderate,A Little,25 min away,10 min away","No,1955,0 square feet,900 square feet,Very High,5 min away,A Moderate Amount,Bad,Very Good,A Lot,5 min away,20 min away",0,12155,2022-01-26 19:47:18,10999
5dddd95d238a91d4fa1a8cf6,ma_choice_v3_pilot3,5dddd95d238a91d4fa1a8cf6,43,0,-1,-1,"Size of home,Reputation of closest school,Washer/dryer in unit,Amount of natural light,Proximity to cafes/restaurants,Proximity to parks,Proximity to public transportation,Size of yard,Quality of heat/AC system,Noise pollution,Year building was built,Amount of traffic","900 square feet,Good,No,A Moderate Amount,25 min away,20 min away,10 min away,900 square feet,Good,Very Low,2015,A Lot","1200 square feet,Very Bad,Yes,Very Little,10 min away,5 min away,20 min away,100 square feet,Bad,High,1959,A Little",0,7563,2022-01-26 19:47:20,11000
5dddd95d238a91d4fa1a8cf6,ma_choice_v3_pilot3,5dddd95d238a91d4fa1a8cf6,44,0,-1,-1,"Proximity to cafes/restaurants,Proximity to public transportation,Proximity to parks,Size of home,Quality of heat/AC system,Year building was built,Noise pollution,Reputation of closest school,Washer/dryer in unit,Amount of traffic,Size of yard,Amount of natural light","10 min away,5 min away,15 min away,800 square feet,Good,1996,Moderate,Bad,No,Very Little,600 square feet,A Little","25 min away,20 min away,25 min away,1300 square feet,Bad,1968,Very Low,Good,Yes,A Lot,300 square feet,A Lot",1,11220,2022-01-26 19:47:32,11001
5e29ada5d441690127fb5748,ma_choice_v3_pilot3,5e29ada5d441690127fb5748,8,1,-1,-1,"Year building was built,Size of home,Amount of natural light,Reputation of closest school,Proximity to cafes/restaurants,Size of yard,Amount of traffic,Washer/dryer in unit,Noise pollution,Proximity to parks,Quality of heat/AC system,Proximity to public transportation","2000,900 square feet,A Moderate Amount,Very Bad,15 min away,1000 square feet,A Little,No,Moderate,25 min away,Very Good,5 min away","1953,1800 square feet,Very Little,Good,5 min away,100 square feet,A Lot,Yes,Very High,15 min away,Moderate,15 min away",1,17495,2022-01-26 19:47:36,11002
5dddd95d238a91d4fa1a8cf6,ma_choice_v3_pilot3,5dddd95d238a91d4fa1a8cf6,45,0,-1,-1,"Washer/dryer in unit,Proximity to parks,Amount of traffic,Year building was built,Proximity to cafes/restaurants,Amount of natural light,Proximity to public transportation,Noise pollution,Size of home,Size of yard,Quality of heat/AC system,Reputation of closest school","Yes,25 min away,Very Little,1972,25 min away,A Lot,20 min away,Very High,1700 square feet,500 square feet,Moderate,Moderate","No,10 min away,A Moderate Amount,1999,10 min away,A Little,10 min away,Low,1400 square feet,200 square feet,Very Bad,Very Good",0,7601,2022-01-26 19:47:41,11003
5dddd95d238a91d4fa1a8cf6,ma_choice_v3_pilot3,5dddd95d238a91d4fa1a8cf6,46,0,-1,-1,"Year building was built,Washer/dryer in unit,Quality of heat/AC system,Amount of traffic,Size of home,Proximity to parks,Noise pollution,Reputation of closest school,Size of yard,Proximity to cafes/restaurants,Proximity to public transportation,Amount of natural light","2003,No,Bad,Very Little,800 square feet,20 min away,Moderate,Very Bad,100 square feet,15 min away,10 min away,Very Little","1964,Yes,Very Good,A Moderate Amount,1200 square feet,5 min away,Very High,Good,400 square feet,5 min away,25 min away,A Lot",1,8607,2022-01-26 19:47:50,11004
5dddd95d238a91d4fa1a8cf6,ma_choice_v3_pilot3,5dddd95d238a91d4fa1a8cf6,47,0,-1,-1,"Quality of heat/AC system,Noise pollution,Year building was built,Proximity to parks,Size of yard,Size of home,Reputation of closest school,Washer/dryer in unit,Proximity to cafes/restaurants,Amount of traffic,Amount of natural light,Proximity to public transportation","Very Bad,Low,1982,10 min away,900 square feet,900 square feet,Bad,No,20 min away,Very Little,A Lot,10 min away","Good,High,2002,25 min away,400 square feet,1300 square feet,Good,Yes,5 min away,A Moderate Amount,A Little,20 min away",1,7359,2022-01-26 19:47:59,11005
5dddd95d238a91d4fa1a8cf6,ma_choice_v3_pilot3,5dddd95d238a91d4fa1a8cf6,48,0,-1,-1,"Proximity to parks,Reputation of closest school,Proximity to public transportation,Year building was built,Noise pollution,Quality of heat/AC system,Size of yard,Proximity to cafes/restaurants,Amount of natural light,Size of home,Amount of traffic,Washer/dryer in unit","25 min away,Moderate,10 min away,2002,High,Very Bad,600 square feet,20 min away,A Lot,900 square feet,A Lot,Yes","10 min away,Very Bad,25 min away,1975,Low,Good,200 square feet,10 min away,Very Little,1400 square feet,A Little,No",1,9336,2022-01-26 19:48:09,11006
5dddd95d238a91d4fa1a8cf6,ma_choice_v3_pilot3,5dddd95d238a91d4fa1a8cf6,49,0,-1,-1,"Noise pollution,Size of home,Reputation of closest school,Quality of heat/AC system,Amount of traffic,Amount of natural light,Proximity to public transportation,Proximity to cafes/restaurants,Proximity to parks,Washer/dryer in unit,Year building was built,Size of yard","High,1100 square feet,Very Good,Very Good,A Little,A Moderate Amount,15 min away,10 min away,20 min away,Yes,1954,200 square feet","Very Low,1600 square feet,Very Bad,Very Bad,A Lot,Very Little,5 min away,25 min away,5 min away,No,2014,700 square feet",0,7439,2022-01-26 19:48:18,11007
5e29ada5d441690127fb5748,ma_choice_v3_pilot3,5e29ada5d441690127fb5748,9,1,-1,-1,"Proximity to parks,Quality of heat/AC system,Proximity to public transportation,Proximity to cafes/restaurants,Reputation of closest school,Size of yard,Year building was built,Noise pollution,Size of home,Amount of natural light,Washer/dryer in unit,Amount of traffic","15 min away,Very Bad,25 min away,20 min away,Moderate,300 square feet,1965,High,1200 square feet,A Moderate Amount,No,A Little","25 min away,Very Good,5 min away,5 min away,Very Bad,600 square feet,2000,Low,1000 square feet,Very Little,Yes,A Lot",1,41797,2022-01-26 19:48:19,11008
5c660497076e4e0001290b6c,ma_choice_v3_pilot3,5c660497076e4e0001290b6c,0,1,-1,-1,"Size of yard,Year building was built,Proximity to public transportation,Quality of heat/AC system,Size of home,Amount of natural light,Washer/dryer in unit,Reputation of closest school,Proximity to cafes/restaurants,Noise pollution,Amount of traffic,Proximity to parks","300 square feet,1971,5 min away,Very Good,900 square feet,A Moderate Amount,No,Bad,25 min away,Very High,A Little,15 min away","700 square feet,1991,25 min away,Bad,1700 square feet,Very Little,Yes,Very Good,10 min away,Very Low,A Lot,5 min away",0,16620,2022-01-26 19:48:21,11009
5dddd95d238a91d4fa1a8cf6,ma_choice_v3_pilot3,5dddd95d238a91d4fa1a8cf6,50,0,-1,-1,"Washer/dryer in unit,Proximity to parks,Size of home,Noise pollution,Reputation of closest school,Proximity to public transportation,Size of yard,Year building was built,Amount of traffic,Proximity to cafes/restaurants,Amount of natural light,Quality of heat/AC system","Yes,25 min away,1100 square feet,Very Low,Very Bad,20 min away,900 square feet,2010,A Lot,15 min away,Very Little,Very Bad","No,15 min away,1500 square feet,Moderate,Moderate,10 min away,200 square feet,1954,A Little,25 min away,A Lot,Good",0,7441,2022-01-26 19:48:26,11010
5c660497076e4e0001290b6c,ma_choice_v3_pilot3,5c660497076e4e0001290b6c,1,1,-1,-1,"Size of home,Amount of traffic,Reputation of closest school,Year building was built,Proximity to public transportation,Size of yard,Amount of natural light,Proximity to parks,Quality of heat/AC system,Proximity to cafes/restaurants,Noise pollution,Washer/dryer in unit","1200 square feet,A Moderate Amount,Very Good,2016,10 min away,800 square feet,A Little,25 min away,Very Good,5 min away,Moderate,Yes","1500 square feet,Very Little,Bad,1953,20 min away,0 square feet,A Lot,15 min away,Bad,20 min away,Very High,No",0,11140,2022-01-26 19:48:33,11011
