subject,version,assignmentId,trial,attribute,original_or_followup,signed_weights,full_or_lex,rating,least_preferred,most_preferred,rt,rt2,stamp,id
60fe22dd264b60cfa27edffd,ma_choice_v3_pilot3,60fe22dd264b60cfa27edffd,0,Size of home,original,,1,1,,,3910,,2022-01-26 19:33:38,2907
60fe22dd264b60cfa27edffd,ma_choice_v3_pilot3,60fe22dd264b60cfa27edffd,10,Amount of traffic,followup,,1,13,,,7027,,2022-01-26 19:34:04,2908
60fe22dd264b60cfa27edffd,ma_choice_v3_pilot3,60fe22dd264b60cfa27edffd,7,Size of yard,followup,,1,75,,,9577,,2022-01-26 19:34:13,2909
60fe22dd264b60cfa27edffd,ma_choice_v3_pilot3,60fe22dd264b60cfa27edffd,8,Washer/dryer in unit,followup,,1,75,,,4672,,2022-01-26 19:34:18,2910
60fe22dd264b60cfa27edffd,ma_choice_v3_pilot3,60fe22dd264b60cfa27edffd,1,Proximity to cafes/restaurants,followup,,1,24,,,7016,,2022-01-26 19:34:25,2911
60fe22dd264b60cfa27edffd,ma_choice_v3_pilot3,60fe22dd264b60cfa27edffd,9,Quality of heat/AC system,followup,,1,50,,,3476,,2022-01-26 19:34:29,2912
60fe22dd264b60cfa27edffd,ma_choice_v3_pilot3,60fe22dd264b60cfa27edffd,5,Amount of natural light,followup,,1,82,,,4996,,2022-01-26 19:34:34,2913
60fe22dd264b60cfa27edffd,ma_choice_v3_pilot3,60fe22dd264b60cfa27edffd,6,Year building was built,followup,,1,50,,,3314,,2022-01-26 19:34:37,2914
60fe22dd264b60cfa27edffd,ma_choice_v3_pilot3,60fe22dd264b60cfa27edffd,11,Size of home,followup,,1,100,,,2389,,2022-01-26 19:34:39,2915
60fe22dd264b60cfa27edffd,ma_choice_v3_pilot3,60fe22dd264b60cfa27edffd,4,Reputation of closest school,followup,,1,51,,,4079,,2022-01-26 19:34:43,2916
60fe22dd264b60cfa27edffd,ma_choice_v3_pilot3,60fe22dd264b60cfa27edffd,3,Noise pollution,followup,,1,37,,,4354,,2022-01-26 19:34:48,2917
60fe22dd264b60cfa27edffd,ma_choice_v3_pilot3,60fe22dd264b60cfa27edffd,2,Proximity to public transportation,followup,,1,14,,,4864,,2022-01-26 19:34:53,2918
60fe22dd264b60cfa27edffd,ma_choice_v3_pilot3,60fe22dd264b60cfa27edffd,0,Proximity to parks,followup,,1,18,,,6373,,2022-01-26 19:34:59,2919
60fe22dd264b60cfa27edffd,ma_choice_v3_pilot3,60fe22dd264b60cfa27edffd,10,Amount of traffic,direction,,1,-1,A Lot,Very Little,16593,,2022-01-26 19:35:39,2920
60fe22dd264b60cfa27edffd,ma_choice_v3_pilot3,60fe22dd264b60cfa27edffd,5,Amount of natural light,direction,,1,-1,Very Little,A Lot,6014,,2022-01-26 19:35:45,2921
60fe22dd264b60cfa27edffd,ma_choice_v3_pilot3,60fe22dd264b60cfa27edffd,9,Quality of heat/AC system,direction,,1,-1,Very Bad,Very Good,3925,,2022-01-26 19:35:49,2922
60fe22dd264b60cfa27edffd,ma_choice_v3_pilot3,60fe22dd264b60cfa27edffd,4,Reputation of closest school,direction,,1,-1,Very Bad,Very Good,4316,,2022-01-26 19:35:53,2923
60fe22dd264b60cfa27edffd,ma_choice_v3_pilot3,60fe22dd264b60cfa27edffd,0,Proximity to parks,direction,,1,-1,25 min away,5 min away,8813,,2022-01-26 19:36:02,2924
60fe22dd264b60cfa27edffd,ma_choice_v3_pilot3,60fe22dd264b60cfa27edffd,7,Size of yard,direction,,1,-1,0 square feet,1000 square feet,3290,,2022-01-26 19:36:05,2925
60fe22dd264b60cfa27edffd,ma_choice_v3_pilot3,60fe22dd264b60cfa27edffd,2,Proximity to public transportation,direction,,1,-1,5 min away,15 min away,9751,,2022-01-26 19:36:15,2926
60fe22dd264b60cfa27edffd,ma_choice_v3_pilot3,60fe22dd264b60cfa27edffd,8,Washer/dryer in unit,direction,,1,-1,No,Yes,4386,,2022-01-26 19:36:19,2927
60fe22dd264b60cfa27edffd,ma_choice_v3_pilot3,60fe22dd264b60cfa27edffd,6,Year building was built,direction,,1,-1,1985,1950,5886,,2022-01-26 19:36:25,2928
60fe22dd264b60cfa27edffd,ma_choice_v3_pilot3,60fe22dd264b60cfa27edffd,11,Size of home,direction,,1,-1,600 square feet,1800 square feet,5709,,2022-01-26 19:36:31,2929
60fe22dd264b60cfa27edffd,ma_choice_v3_pilot3,60fe22dd264b60cfa27edffd,1,Proximity to cafes/restaurants,direction,,1,-1,25 min away,5 min away,9382,,2022-01-26 19:36:40,2930
60fe22dd264b60cfa27edffd,ma_choice_v3_pilot3,60fe22dd264b60cfa27edffd,3,Noise pollution,direction,,1,-1,Very High,Very Low,4481,,2022-01-26 19:36:45,2931
5dddd95d238a91d4fa1a8cf6,ma_choice_v3_pilot3,5dddd95d238a91d4fa1a8cf6,0,Proximity to parks,original,2,2,24,,,4839,,2022-01-26 19:53:21,2932
5dddd95d238a91d4fa1a8cf6,ma_choice_v3_pilot3,5dddd95d238a91d4fa1a8cf6,4,Reputation of closest school,original,2,2,51,,,3280,,2022-01-26 19:53:24,2933
5dddd95d238a91d4fa1a8cf6,ma_choice_v3_pilot3,5dddd95d238a91d4fa1a8cf6,11,Size of home,original,2,2,88,,,3706,,2022-01-26 19:53:28,2934
5dddd95d238a91d4fa1a8cf6,ma_choice_v3_pilot3,5dddd95d238a91d4fa1a8cf6,6,Year building was built,original,2,2,24,,,3792,,2022-01-26 19:53:32,2935
5dddd95d238a91d4fa1a8cf6,ma_choice_v3_pilot3,5dddd95d238a91d4fa1a8cf6,2,Proximity to public transportation,original,2,2,0,,,2630,,2022-01-26 19:53:34,2936
5dddd95d238a91d4fa1a8cf6,ma_choice_v3_pilot3,5dddd95d238a91d4fa1a8cf6,9,Quality of heat/AC system,original,2,2,50,,,4142,,2022-01-26 19:53:38,2937
5dddd95d238a91d4fa1a8cf6,ma_choice_v3_pilot3,5dddd95d238a91d4fa1a8cf6,10,Amount of traffic,original,2,2,49,,,3363,,2022-01-26 19:53:42,2938
5dddd95d238a91d4fa1a8cf6,ma_choice_v3_pilot3,5dddd95d238a91d4fa1a8cf6,5,Amount of natural light,original,2,2,40,,,2693,,2022-01-26 19:53:44,2939
5dddd95d238a91d4fa1a8cf6,ma_choice_v3_pilot3,5dddd95d238a91d4fa1a8cf6,7,Size of yard,original,2,2,72,,,3479,,2022-01-26 19:53:48,2940
5dddd95d238a91d4fa1a8cf6,ma_choice_v3_pilot3,5dddd95d238a91d4fa1a8cf6,3,Noise pollution,original,2,2,26,,,2837,,2022-01-26 19:53:51,2941
5dddd95d238a91d4fa1a8cf6,ma_choice_v3_pilot3,5dddd95d238a91d4fa1a8cf6,1,Proximity to cafes/restaurants,original,2,2,49,,,3445,,2022-01-26 19:53:54,2942
5dddd95d238a91d4fa1a8cf6,ma_choice_v3_pilot3,5dddd95d238a91d4fa1a8cf6,8,Washer/dryer in unit,original,2,2,60,,,2919,,2022-01-26 19:53:57,2943
5dddd95d238a91d4fa1a8cf6,ma_choice_v3_pilot3,5dddd95d238a91d4fa1a8cf6,2,Proximity to public transportation,followup,2,2,,,,,,2022-01-26 19:54:13,2944
5dddd95d238a91d4fa1a8cf6,ma_choice_v3_pilot3,5dddd95d238a91d4fa1a8cf6,5,Amount of natural light,followup,2,2,,,,,,2022-01-26 19:54:13,2945
5dddd95d238a91d4fa1a8cf6,ma_choice_v3_pilot3,5dddd95d238a91d4fa1a8cf6,8,Washer/dryer in unit,followup,2,2,,,,,,2022-01-26 19:54:13,2946
5dddd95d238a91d4fa1a8cf6,ma_choice_v3_pilot3,5dddd95d238a91d4fa1a8cf6,9,Quality of heat/AC system,followup,2,2,,,,,,2022-01-26 19:54:13,2947
5dddd95d238a91d4fa1a8cf6,ma_choice_v3_pilot3,5dddd95d238a91d4fa1a8cf6,1,Proximity to cafes/restaurants,followup,2,2,,,,,,2022-01-26 19:54:13,2948
5dddd95d238a91d4fa1a8cf6,ma_choice_v3_pilot3,5dddd95d238a91d4fa1a8cf6,3,Noise pollution,followup,2,2,,,,,,2022-01-26 19:54:13,2949
5dddd95d238a91d4fa1a8cf6,ma_choice_v3_pilot3,5dddd95d238a91d4fa1a8cf6,7,Size of yard,followup,2,2,,,,,,2022-01-26 19:54:13,2950
5dddd95d238a91d4fa1a8cf6,ma_choice_v3_pilot3,5dddd95d238a91d4fa1a8cf6,11,Size of home,followup,2,2,,,,,,2022-01-26 19:54:13,2951
5dddd95d238a91d4fa1a8cf6,ma_choice_v3_pilot3,5dddd95d238a91d4fa1a8cf6,0,Proximity to parks,followup,2,2,,,,,,2022-01-26 19:54:13,2952
5dddd95d238a91d4fa1a8cf6,ma_choice_v3_pilot3,5dddd95d238a91d4fa1a8cf6,4,Reputation of closest school,followup,2,2,,,,,,2022-01-26 19:54:13,2953
5dddd95d238a91d4fa1a8cf6,ma_choice_v3_pilot3,5dddd95d238a91d4fa1a8cf6,10,Amount of traffic,followup,2,2,,,,,,2022-01-26 19:54:13,2954
5dddd95d238a91d4fa1a8cf6,ma_choice_v3_pilot3,5dddd95d238a91d4fa1a8cf6,6,Year building was built,followup,2,2,,,,,,2022-01-26 19:54:13,2955
5dddd95d238a91d4fa1a8cf6,ma_choice_v3_pilot3,5dddd95d238a91d4fa1a8cf6,0,Proximity to parks,direction,2,2,-1,25 min away,10 min away,13103,,2022-01-26 19:54:41,2956
5dddd95d238a91d4fa1a8cf6,ma_choice_v3_pilot3,5dddd95d238a91d4fa1a8cf6,2,Proximity to public transportation,direction,2,2,-1,10 min away,5 min away,8186,,2022-01-26 19:54:49,2957
5dddd95d238a91d4fa1a8cf6,ma_choice_v3_pilot3,5dddd95d238a91d4fa1a8cf6,4,Reputation of closest school,direction,2,2,-1,Very Bad,Very Good,9183,,2022-01-26 19:54:58,2958
5dddd95d238a91d4fa1a8cf6,ma_choice_v3_pilot3,5dddd95d238a91d4fa1a8cf6,6,Year building was built,direction,2,2,-1,1950,1985,6676,,2022-01-26 19:55:05,2959
5dddd95d238a91d4fa1a8cf6,ma_choice_v3_pilot3,5dddd95d238a91d4fa1a8cf6,8,Washer/dryer in unit,direction,2,2,-1,No,Yes,6908,,2022-01-26 19:55:12,2960
5dddd95d238a91d4fa1a8cf6,ma_choice_v3_pilot3,5dddd95d238a91d4fa1a8cf6,11,Size of home,direction,2,2,-1,600 square feet,1800 square feet,4569,,2022-01-26 19:55:16,2961
5dddd95d238a91d4fa1a8cf6,ma_choice_v3_pilot3,5dddd95d238a91d4fa1a8cf6,5,Amount of natural light,direction,2,2,-1,A Little,A Moderate Amount,4318,,2022-01-26 19:55:20,2962
5dddd95d238a91d4fa1a8cf6,ma_choice_v3_pilot3,5dddd95d238a91d4fa1a8cf6,7,Size of yard,direction,2,2,-1,0 square feet,500 square feet,4242,,2022-01-26 19:55:25,2963
5dddd95d238a91d4fa1a8cf6,ma_choice_v3_pilot3,5dddd95d238a91d4fa1a8cf6,1,Proximity to cafes/restaurants,direction,2,2,-1,25 min away,10 min away,5100,,2022-01-26 19:55:30,2964
5dddd95d238a91d4fa1a8cf6,ma_choice_v3_pilot3,5dddd95d238a91d4fa1a8cf6,10,Amount of traffic,direction,2,2,-1,A Lot,Very Little,4958,,2022-01-26 19:55:35,2965
5dddd95d238a91d4fa1a8cf6,ma_choice_v3_pilot3,5dddd95d238a91d4fa1a8cf6,9,Quality of heat/AC system,direction,2,2,-1,Very Bad,Good,5153,,2022-01-26 19:55:40,2966
5dddd95d238a91d4fa1a8cf6,ma_choice_v3_pilot3,5dddd95d238a91d4fa1a8cf6,3,Noise pollution,direction,2,2,-1,Very High,Low,4868,,2022-01-26 19:55:45,2967
5c660497076e4e0001290b6c,ma_choice_v3_pilot3,5c660497076e4e0001290b6c,2,Proximity to public transportation,original,2,2,87,,,4182,,2022-01-26 20:03:52,2968
5c660497076e4e0001290b6c,ma_choice_v3_pilot3,5c660497076e4e0001290b6c,8,Washer/dryer in unit,original,2,2,75,,,2781,,2022-01-26 20:03:55,2969
5c660497076e4e0001290b6c,ma_choice_v3_pilot3,5c660497076e4e0001290b6c,5,Amount of natural light,original,2,2,26,,,2677,,2022-01-26 20:03:57,2970
5c660497076e4e0001290b6c,ma_choice_v3_pilot3,5c660497076e4e0001290b6c,4,Reputation of closest school,original,2,2,0,,,2589,,2022-01-26 20:04:00,2971
5c660497076e4e0001290b6c,ma_choice_v3_pilot3,5c660497076e4e0001290b6c,3,Noise pollution,original,2,2,12,,,2419,,2022-01-26 20:04:02,2972
5c660497076e4e0001290b6c,ma_choice_v3_pilot3,5c660497076e4e0001290b6c,9,Quality of heat/AC system,original,2,2,60,,,4773,,2022-01-26 20:04:07,2973
5c660497076e4e0001290b6c,ma_choice_v3_pilot3,5c660497076e4e0001290b6c,6,Year building was built,original,2,2,0,,,1899,,2022-01-26 20:04:09,2974
5c660497076e4e0001290b6c,ma_choice_v3_pilot3,5c660497076e4e0001290b6c,0,Proximity to parks,original,2,2,26,,,3940,,2022-01-26 20:04:13,2975
5c660497076e4e0001290b6c,ma_choice_v3_pilot3,5c660497076e4e0001290b6c,10,Amount of traffic,original,2,2,26,,,3358,,2022-01-26 20:04:16,2976
5c660497076e4e0001290b6c,ma_choice_v3_pilot3,5c660497076e4e0001290b6c,7,Size of yard,original,2,2,11,,,3221,,2022-01-26 20:04:20,2977
5c660497076e4e0001290b6c,ma_choice_v3_pilot3,5c660497076e4e0001290b6c,11,Size of home,original,2,2,0,,,2078,,2022-01-26 20:04:22,2978
5c660497076e4e0001290b6c,ma_choice_v3_pilot3,5c660497076e4e0001290b6c,1,Proximity to cafes/restaurants,original,2,2,0,,,1910,,2022-01-26 20:04:24,2979
5c660497076e4e0001290b6c,ma_choice_v3_pilot3,5c660497076e4e0001290b6c,5,Amount of natural light,followup,2,2,,,,,,2022-01-26 20:04:31,2980
5c660497076e4e0001290b6c,ma_choice_v3_pilot3,5c660497076e4e0001290b6c,2,Proximity to public transportation,followup,2,2,,,,,,2022-01-26 20:04:31,2981
5c660497076e4e0001290b6c,ma_choice_v3_pilot3,5c660497076e4e0001290b6c,6,Year building was built,followup,2,2,,,,,,2022-01-26 20:04:31,2982
5c660497076e4e0001290b6c,ma_choice_v3_pilot3,5c660497076e4e0001290b6c,9,Quality of heat/AC system,followup,2,2,,,,,,2022-01-26 20:04:31,2983
5c660497076e4e0001290b6c,ma_choice_v3_pilot3,5c660497076e4e0001290b6c,10,Amount of traffic,followup,2,2,,,,,,2022-01-26 20:04:31,2984
5c660497076e4e0001290b6c,ma_choice_v3_pilot3,5c660497076e4e0001290b6c,11,Size of home,followup,2,2,,,,,,2022-01-26 20:04:31,2985
5c660497076e4e0001290b6c,ma_choice_v3_pilot3,5c660497076e4e0001290b6c,8,Washer/dryer in unit,followup,2,2,,,,,,2022-01-26 20:04:31,2986
5c660497076e4e0001290b6c,ma_choice_v3_pilot3,5c660497076e4e0001290b6c,0,Proximity to parks,followup,2,2,,,,,,2022-01-26 20:04:31,2987
5c660497076e4e0001290b6c,ma_choice_v3_pilot3,5c660497076e4e0001290b6c,3,Noise pollution,followup,2,2,,,,,,2022-01-26 20:04:31,2988
5c660497076e4e0001290b6c,ma_choice_v3_pilot3,5c660497076e4e0001290b6c,4,Reputation of closest school,followup,2,2,,,,,,2022-01-26 20:04:31,2989
5c660497076e4e0001290b6c,ma_choice_v3_pilot3,5c660497076e4e0001290b6c,1,Proximity to cafes/restaurants,followup,2,2,,,,,,2022-01-26 20:04:31,2990
5c660497076e4e0001290b6c,ma_choice_v3_pilot3,5c660497076e4e0001290b6c,7,Size of yard,followup,2,2,,,,,,2022-01-26 20:04:31,2991
5c660497076e4e0001290b6c,ma_choice_v3_pilot3,5c660497076e4e0001290b6c,3,Noise pollution,direction,2,2,-1,Very High,Very Low,13592,,2022-01-26 20:05:01,2992
5c660497076e4e0001290b6c,ma_choice_v3_pilot3,5c660497076e4e0001290b6c,10,Amount of traffic,direction,2,2,-1,A Lot,Very Little,5430,,2022-01-26 20:05:07,2993
5c660497076e4e0001290b6c,ma_choice_v3_pilot3,5c660497076e4e0001290b6c,7,Size of yard,direction,2,2,-1,0 square feet,1000 square feet,8757,,2022-01-26 20:05:15,2994
5c660497076e4e0001290b6c,ma_choice_v3_pilot3,5c660497076e4e0001290b6c,11,Size of home,direction,2,2,-1,600 square feet,1800 square feet,6124,,2022-01-26 20:05:21,2995
5c660497076e4e0001290b6c,ma_choice_v3_pilot3,5c660497076e4e0001290b6c,8,Washer/dryer in unit,direction,2,2,-1,No,Yes,7517,,2022-01-26 20:05:29,2996
5c660497076e4e0001290b6c,ma_choice_v3_pilot3,5c660497076e4e0001290b6c,5,Amount of natural light,direction,2,2,-1,Very Little,A Lot,3958,,2022-01-26 20:05:33,2997
5c660497076e4e0001290b6c,ma_choice_v3_pilot3,5c660497076e4e0001290b6c,1,Proximity to cafes/restaurants,direction,2,2,-1,25 min away,5 min away,8053,,2022-01-26 20:05:41,2998
5c660497076e4e0001290b6c,ma_choice_v3_pilot3,5c660497076e4e0001290b6c,2,Proximity to public transportation,direction,2,2,-1,25 min away,5 min away,4013,,2022-01-26 20:05:45,2999
5c660497076e4e0001290b6c,ma_choice_v3_pilot3,5c660497076e4e0001290b6c,6,Year building was built,direction,2,2,-1,1950,1985,8654,,2022-01-26 20:05:54,3000
5c660497076e4e0001290b6c,ma_choice_v3_pilot3,5c660497076e4e0001290b6c,4,Reputation of closest school,direction,2,2,-1,Very Bad,Very Good,5509,,2022-01-26 20:05:59,3001
5c660497076e4e0001290b6c,ma_choice_v3_pilot3,5c660497076e4e0001290b6c,9,Quality of heat/AC system,direction,2,2,-1,Very Bad,Very Good,3868,,2022-01-26 20:06:03,3002
5c660497076e4e0001290b6c,ma_choice_v3_pilot3,5c660497076e4e0001290b6c,0,Proximity to parks,direction,2,2,-1,25 min away,5 min away,3957,,2022-01-26 20:06:07,3003
5dcca2db88381e92c96b9ac5,ma_choice_v3_pilot3,5dcca2db88381e92c96b9ac5,10,Amount of traffic,original,2,2,12,,,5874,,2022-01-26 20:07:48,3004
5dcca2db88381e92c96b9ac5,ma_choice_v3_pilot3,5dcca2db88381e92c96b9ac5,0,Proximity to parks,original,2,2,11,,,9802,,2022-01-26 20:07:58,3005
5dcca2db88381e92c96b9ac5,ma_choice_v3_pilot3,5dcca2db88381e92c96b9ac5,6,Year building was built,original,2,2,25,,,2594,,2022-01-26 20:08:00,3006
5dcca2db88381e92c96b9ac5,ma_choice_v3_pilot3,5dcca2db88381e92c96b9ac5,8,Washer/dryer in unit,original,2,2,74,,,4726,,2022-01-26 20:08:05,3007
5dcca2db88381e92c96b9ac5,ma_choice_v3_pilot3,5dcca2db88381e92c96b9ac5,1,Proximity to cafes/restaurants,original,2,2,18,,,4385,,2022-01-26 20:08:09,3008
5dcca2db88381e92c96b9ac5,ma_choice_v3_pilot3,5dcca2db88381e92c96b9ac5,11,Size of home,original,2,2,32,,,3470,,2022-01-26 20:08:13,3009
5dcca2db88381e92c96b9ac5,ma_choice_v3_pilot3,5dcca2db88381e92c96b9ac5,4,Reputation of closest school,original,2,2,25,,,2726,,2022-01-26 20:08:16,3010
5dcca2db88381e92c96b9ac5,ma_choice_v3_pilot3,5dcca2db88381e92c96b9ac5,9,Quality of heat/AC system,original,2,2,79,,,3267,,2022-01-26 20:08:19,3011
5eff8ffb5819b1074680077c,ma_choice_v3_pilot3,5eff8ffb5819b1074680077c,4,Reputation of closest school,original,2,2,0,,,4132,,2022-01-26 20:08:24,3012
5dcca2db88381e92c96b9ac5,ma_choice_v3_pilot3,5dcca2db88381e92c96b9ac5,2,Proximity to public transportation,original,2,2,14,,,4882,,2022-01-26 20:08:24,3013
5dcca2db88381e92c96b9ac5,ma_choice_v3_pilot3,5dcca2db88381e92c96b9ac5,7,Size of yard,original,2,2,19,,,2348,,2022-01-26 20:08:26,3014
5eff8ffb5819b1074680077c,ma_choice_v3_pilot3,5eff8ffb5819b1074680077c,5,Amount of natural light,original,2,2,12,,,3230,,2022-01-26 20:08:27,3015
5dcca2db88381e92c96b9ac5,ma_choice_v3_pilot3,5dcca2db88381e92c96b9ac5,5,Amount of natural light,original,2,2,7,,,2360,,2022-01-26 20:08:28,3016
5eff8ffb5819b1074680077c,ma_choice_v3_pilot3,5eff8ffb5819b1074680077c,2,Proximity to public transportation,original,2,2,12,,,3161,,2022-01-26 20:08:30,3017
5dcca2db88381e92c96b9ac5,ma_choice_v3_pilot3,5dcca2db88381e92c96b9ac5,3,Noise pollution,original,2,2,14,,,3106,,2022-01-26 20:08:32,3018
5eff8ffb5819b1074680077c,ma_choice_v3_pilot3,5eff8ffb5819b1074680077c,8,Washer/dryer in unit,original,2,2,37,,,3554,,2022-01-26 20:08:34,3019
5eff8ffb5819b1074680077c,ma_choice_v3_pilot3,5eff8ffb5819b1074680077c,0,Proximity to parks,original,2,2,2,,,2896,,2022-01-26 20:08:37,3020
5eff8ffb5819b1074680077c,ma_choice_v3_pilot3,5eff8ffb5819b1074680077c,1,Proximity to cafes/restaurants,original,2,2,12,,,4348,,2022-01-26 20:08:41,3021
5dcca2db88381e92c96b9ac5,ma_choice_v3_pilot3,5dcca2db88381e92c96b9ac5,5,Amount of natural light,followup,2,2,,,,,,2022-01-26 20:08:44,3022
5dcca2db88381e92c96b9ac5,ma_choice_v3_pilot3,5dcca2db88381e92c96b9ac5,0,Proximity to parks,followup,2,2,,,,,,2022-01-26 20:08:44,3023
5dcca2db88381e92c96b9ac5,ma_choice_v3_pilot3,5dcca2db88381e92c96b9ac5,7,Size of yard,followup,2,2,,,,,,2022-01-26 20:08:44,3024
5dcca2db88381e92c96b9ac5,ma_choice_v3_pilot3,5dcca2db88381e92c96b9ac5,9,Quality of heat/AC system,followup,2,2,,,,,,2022-01-26 20:08:44,3025
5dcca2db88381e92c96b9ac5,ma_choice_v3_pilot3,5dcca2db88381e92c96b9ac5,8,Washer/dryer in unit,followup,2,2,,,,,,2022-01-26 20:08:44,3026
5dcca2db88381e92c96b9ac5,ma_choice_v3_pilot3,5dcca2db88381e92c96b9ac5,11,Size of home,followup,2,2,,,,,,2022-01-26 20:08:44,3027
5dcca2db88381e92c96b9ac5,ma_choice_v3_pilot3,5dcca2db88381e92c96b9ac5,1,Proximity to cafes/restaurants,followup,2,2,,,,,,2022-01-26 20:08:44,3028
5dcca2db88381e92c96b9ac5,ma_choice_v3_pilot3,5dcca2db88381e92c96b9ac5,10,Amount of traffic,followup,2,2,,,,,,2022-01-26 20:08:44,3029
5dcca2db88381e92c96b9ac5,ma_choice_v3_pilot3,5dcca2db88381e92c96b9ac5,2,Proximity to public transportation,followup,2,2,,,,,,2022-01-26 20:08:44,3030
5dcca2db88381e92c96b9ac5,ma_choice_v3_pilot3,5dcca2db88381e92c96b9ac5,6,Year building was built,followup,2,2,,,,,,2022-01-26 20:08:44,3031
5dcca2db88381e92c96b9ac5,ma_choice_v3_pilot3,5dcca2db88381e92c96b9ac5,3,Noise pollution,followup,2,2,,,,,,2022-01-26 20:08:44,3032
5dcca2db88381e92c96b9ac5,ma_choice_v3_pilot3,5dcca2db88381e92c96b9ac5,4,Reputation of closest school,followup,2,2,,,,,,2022-01-26 20:08:44,3033
5eff8ffb5819b1074680077c,ma_choice_v3_pilot3,5eff8ffb5819b1074680077c,7,Size of yard,original,2,2,62,,,3360,,2022-01-26 20:08:44,3034
5eff8ffb5819b1074680077c,ma_choice_v3_pilot3,5eff8ffb5819b1074680077c,3,Noise pollution,original,2,2,87,,,3895,,2022-01-26 20:08:48,3035
5eff8ffb5819b1074680077c,ma_choice_v3_pilot3,5eff8ffb5819b1074680077c,9,Quality of heat/AC system,original,2,2,38,,,3722,,2022-01-26 20:08:52,3036
5eff8ffb5819b1074680077c,ma_choice_v3_pilot3,5eff8ffb5819b1074680077c,10,Amount of traffic,original,2,2,75,,,3302,,2022-01-26 20:08:55,3037
5eff8ffb5819b1074680077c,ma_choice_v3_pilot3,5eff8ffb5819b1074680077c,6,Year building was built,original,2,2,50,,,3545,,2022-01-26 20:08:59,3038
5eff8ffb5819b1074680077c,ma_choice_v3_pilot3,5eff8ffb5819b1074680077c,11,Size of home,original,2,2,87,,,4210,,2022-01-26 20:09:03,3039
5dcca2db88381e92c96b9ac5,ma_choice_v3_pilot3,5dcca2db88381e92c96b9ac5,3,Noise pollution,direction,2,2,-1,Very High,Very Low,10259,,2022-01-26 20:09:10,3040
5eff8ffb5819b1074680077c,ma_choice_v3_pilot3,5eff8ffb5819b1074680077c,4,Reputation of closest school,followup,2,2,,,,,,2022-01-26 20:09:15,3041
5eff8ffb5819b1074680077c,ma_choice_v3_pilot3,5eff8ffb5819b1074680077c,9,Quality of heat/AC system,followup,2,2,,,,,,2022-01-26 20:09:15,3042
5eff8ffb5819b1074680077c,ma_choice_v3_pilot3,5eff8ffb5819b1074680077c,2,Proximity to public transportation,followup,2,2,,,,,,2022-01-26 20:09:15,3043
5eff8ffb5819b1074680077c,ma_choice_v3_pilot3,5eff8ffb5819b1074680077c,6,Year building was built,followup,2,2,,,,,,2022-01-26 20:09:15,3044
5eff8ffb5819b1074680077c,ma_choice_v3_pilot3,5eff8ffb5819b1074680077c,5,Amount of natural light,followup,2,2,,,,,,2022-01-26 20:09:15,3045
5eff8ffb5819b1074680077c,ma_choice_v3_pilot3,5eff8ffb5819b1074680077c,10,Amount of traffic,followup,2,2,,,,,,2022-01-26 20:09:15,3046
5eff8ffb5819b1074680077c,ma_choice_v3_pilot3,5eff8ffb5819b1074680077c,1,Proximity to cafes/restaurants,followup,2,2,,,,,,2022-01-26 20:09:15,3047
5eff8ffb5819b1074680077c,ma_choice_v3_pilot3,5eff8ffb5819b1074680077c,8,Washer/dryer in unit,followup,2,2,,,,,,2022-01-26 20:09:15,3048
5eff8ffb5819b1074680077c,ma_choice_v3_pilot3,5eff8ffb5819b1074680077c,0,Proximity to parks,followup,2,2,,,,,,2022-01-26 20:09:15,3049
5eff8ffb5819b1074680077c,ma_choice_v3_pilot3,5eff8ffb5819b1074680077c,7,Size of yard,followup,2,2,,,,,,2022-01-26 20:09:15,3050
5eff8ffb5819b1074680077c,ma_choice_v3_pilot3,5eff8ffb5819b1074680077c,11,Size of home,followup,2,2,,,,,,2022-01-26 20:09:15,3051
5eff8ffb5819b1074680077c,ma_choice_v3_pilot3,5eff8ffb5819b1074680077c,3,Noise pollution,followup,2,2,,,,,,2022-01-26 20:09:15,3052
5dcca2db88381e92c96b9ac5,ma_choice_v3_pilot3,5dcca2db88381e92c96b9ac5,8,Washer/dryer in unit,direction,2,2,-1,No,Yes,6922,,2022-01-26 20:09:17,3053
5dcca2db88381e92c96b9ac5,ma_choice_v3_pilot3,5dcca2db88381e92c96b9ac5,1,Proximity to cafes/restaurants,direction,2,2,-1,25 min away,5 min away,5586,,2022-01-26 20:09:23,3054
5dcca2db88381e92c96b9ac5,ma_choice_v3_pilot3,5dcca2db88381e92c96b9ac5,10,Amount of traffic,direction,2,2,-1,A Lot,Very Little,3726,,2022-01-26 20:09:26,3055
5dcca2db88381e92c96b9ac5,ma_choice_v3_pilot3,5dcca2db88381e92c96b9ac5,9,Quality of heat/AC system,direction,2,2,-1,Very Bad,Very Good,3385,,2022-01-26 20:09:30,3056
5dcca2db88381e92c96b9ac5,ma_choice_v3_pilot3,5dcca2db88381e92c96b9ac5,6,Year building was built,direction,2,2,-1,1950,2020,4263,,2022-01-26 20:09:34,3057
5dcca2db88381e92c96b9ac5,ma_choice_v3_pilot3,5dcca2db88381e92c96b9ac5,5,Amount of natural light,direction,2,2,-1,Very Little,A Lot,4356,,2022-01-26 20:09:38,3058
5dcca2db88381e92c96b9ac5,ma_choice_v3_pilot3,5dcca2db88381e92c96b9ac5,0,Proximity to parks,direction,2,2,-1,25 min away,5 min away,4068,,2022-01-26 20:09:42,3059
5dcca2db88381e92c96b9ac5,ma_choice_v3_pilot3,5dcca2db88381e92c96b9ac5,4,Reputation of closest school,direction,2,2,-1,Very Bad,Very Good,3773,,2022-01-26 20:09:46,3060
5eff8ffb5819b1074680077c,ma_choice_v3_pilot3,5eff8ffb5819b1074680077c,9,Quality of heat/AC system,direction,2,2,-1,Very Bad,Very Good,7534,,2022-01-26 20:09:48,3061
5dcca2db88381e92c96b9ac5,ma_choice_v3_pilot3,5dcca2db88381e92c96b9ac5,7,Size of yard,direction,2,2,-1,0 square feet,1000 square feet,2867,,2022-01-26 20:09:49,3062
5dcca2db88381e92c96b9ac5,ma_choice_v3_pilot3,5dcca2db88381e92c96b9ac5,2,Proximity to public transportation,direction,2,2,-1,25 min away,5 min away,5007,,2022-01-26 20:09:54,3063
5eff8ffb5819b1074680077c,ma_choice_v3_pilot3,5eff8ffb5819b1074680077c,3,Noise pollution,direction,2,2,-1,Very High,Very Low,9262,,2022-01-26 20:09:57,3064
5dcca2db88381e92c96b9ac5,ma_choice_v3_pilot3,5dcca2db88381e92c96b9ac5,11,Size of home,direction,2,2,-1,600 square feet,1800 square feet,4237,,2022-01-26 20:09:58,3065
5eff8ffb5819b1074680077c,ma_choice_v3_pilot3,5eff8ffb5819b1074680077c,7,Size of yard,direction,2,2,-1,0 square feet,1000 square feet,8369,,2022-01-26 20:10:05,3066
5eff8ffb5819b1074680077c,ma_choice_v3_pilot3,5eff8ffb5819b1074680077c,8,Washer/dryer in unit,direction,2,2,-1,No,Yes,4306,,2022-01-26 20:10:10,3067
5eff8ffb5819b1074680077c,ma_choice_v3_pilot3,5eff8ffb5819b1074680077c,0,Proximity to parks,direction,2,2,-1,25 min away,10 min away,7995,,2022-01-26 20:10:18,3068
5eff8ffb5819b1074680077c,ma_choice_v3_pilot3,5eff8ffb5819b1074680077c,11,Size of home,direction,2,2,-1,600 square feet,1800 square feet,6525,,2022-01-26 20:10:24,3069
5eff8ffb5819b1074680077c,ma_choice_v3_pilot3,5eff8ffb5819b1074680077c,2,Proximity to public transportation,direction,2,2,-1,20 min away,15 min away,9345,,2022-01-26 20:10:33,3070
5eff8ffb5819b1074680077c,ma_choice_v3_pilot3,5eff8ffb5819b1074680077c,1,Proximity to cafes/restaurants,direction,2,2,-1,25 min away,15 min away,5399,,2022-01-26 20:10:39,3071
5eff8ffb5819b1074680077c,ma_choice_v3_pilot3,5eff8ffb5819b1074680077c,5,Amount of natural light,direction,2,2,-1,Very Little,A Moderate Amount,6052,,2022-01-26 20:10:45,3072
5eff8ffb5819b1074680077c,ma_choice_v3_pilot3,5eff8ffb5819b1074680077c,10,Amount of traffic,direction,2,2,-1,A Lot,Very Little,7207,,2022-01-26 20:10:52,3073
5eff8ffb5819b1074680077c,ma_choice_v3_pilot3,5eff8ffb5819b1074680077c,4,Reputation of closest school,direction,2,2,-1,Very Bad,Moderate,13527,,2022-01-26 20:11:06,3074
5eff8ffb5819b1074680077c,ma_choice_v3_pilot3,5eff8ffb5819b1074680077c,6,Year building was built,direction,2,2,-1,1950,2020,11504,,2022-01-26 20:11:17,3075
58043bb3bd8a970001fdef44,ma_choice_v3_pilot3,58043bb3bd8a970001fdef44,4,Reputation of closest school,original,2,2,88,,,4847,,2022-01-26 20:18:49,3076
58043bb3bd8a970001fdef44,ma_choice_v3_pilot3,58043bb3bd8a970001fdef44,7,Size of yard,original,2,2,27,,,2654,,2022-01-26 20:18:51,3077
58043bb3bd8a970001fdef44,ma_choice_v3_pilot3,58043bb3bd8a970001fdef44,5,Amount of natural light,original,2,2,37,,,2213,,2022-01-26 20:18:54,3078
58043bb3bd8a970001fdef44,ma_choice_v3_pilot3,58043bb3bd8a970001fdef44,9,Quality of heat/AC system,original,2,2,74,,,4241,,2022-01-26 20:18:58,3079
58043bb3bd8a970001fdef44,ma_choice_v3_pilot3,58043bb3bd8a970001fdef44,11,Size of home,original,2,2,25,,,2860,,2022-01-26 20:19:01,3080
58043bb3bd8a970001fdef44,ma_choice_v3_pilot3,58043bb3bd8a970001fdef44,8,Washer/dryer in unit,original,2,2,25,,,2313,,2022-01-26 20:19:03,3081
58043bb3bd8a970001fdef44,ma_choice_v3_pilot3,58043bb3bd8a970001fdef44,0,Proximity to parks,original,2,2,28,,,2219,,2022-01-26 20:19:05,3082
58043bb3bd8a970001fdef44,ma_choice_v3_pilot3,58043bb3bd8a970001fdef44,6,Year building was built,original,2,2,12,,,2178,,2022-01-26 20:19:07,3083
58043bb3bd8a970001fdef44,ma_choice_v3_pilot3,58043bb3bd8a970001fdef44,1,Proximity to cafes/restaurants,original,2,2,0,,,2457,,2022-01-26 20:19:10,3084
58043bb3bd8a970001fdef44,ma_choice_v3_pilot3,58043bb3bd8a970001fdef44,10,Amount of traffic,original,2,2,22,,,2610,,2022-01-26 20:19:12,3085
58043bb3bd8a970001fdef44,ma_choice_v3_pilot3,58043bb3bd8a970001fdef44,3,Noise pollution,original,2,2,38,,,3418,,2022-01-26 20:19:16,3086
58043bb3bd8a970001fdef44,ma_choice_v3_pilot3,58043bb3bd8a970001fdef44,2,Proximity to public transportation,original,2,2,26,,,2514,,2022-01-26 20:19:18,3087
5b5b6c11f5bc590001177815,ma_choice_v3_pilot3,5b5b6c11f5bc590001177815,0,Proximity to parks,original,2,2,60,,,3887,,2022-01-26 20:19:24,3088
5b5b6c11f5bc590001177815,ma_choice_v3_pilot3,5b5b6c11f5bc590001177815,3,Noise pollution,original,2,2,87,,,4646,,2022-01-26 20:19:29,3089
58043bb3bd8a970001fdef44,ma_choice_v3_pilot3,58043bb3bd8a970001fdef44,5,Amount of natural light,followup,2,2,,,,,,2022-01-26 20:19:30,3090
58043bb3bd8a970001fdef44,ma_choice_v3_pilot3,58043bb3bd8a970001fdef44,7,Size of yard,followup,2,2,,,,,,2022-01-26 20:19:30,3091
58043bb3bd8a970001fdef44,ma_choice_v3_pilot3,58043bb3bd8a970001fdef44,3,Noise pollution,followup,2,2,,,,,,2022-01-26 20:19:30,3092
58043bb3bd8a970001fdef44,ma_choice_v3_pilot3,58043bb3bd8a970001fdef44,6,Year building was built,followup,2,2,,,,,,2022-01-26 20:19:30,3093
58043bb3bd8a970001fdef44,ma_choice_v3_pilot3,58043bb3bd8a970001fdef44,11,Size of home,followup,2,2,,,,,,2022-01-26 20:19:30,3094
58043bb3bd8a970001fdef44,ma_choice_v3_pilot3,58043bb3bd8a970001fdef44,2,Proximity to public transportation,followup,2,2,,,,,,2022-01-26 20:19:30,3095
58043bb3bd8a970001fdef44,ma_choice_v3_pilot3,58043bb3bd8a970001fdef44,8,Washer/dryer in unit,followup,2,2,,,,,,2022-01-26 20:19:30,3096
58043bb3bd8a970001fdef44,ma_choice_v3_pilot3,58043bb3bd8a970001fdef44,9,Quality of heat/AC system,followup,2,2,,,,,,2022-01-26 20:19:30,3097
58043bb3bd8a970001fdef44,ma_choice_v3_pilot3,58043bb3bd8a970001fdef44,4,Reputation of closest school,followup,2,2,,,,,,2022-01-26 20:19:30,3098
58043bb3bd8a970001fdef44,ma_choice_v3_pilot3,58043bb3bd8a970001fdef44,1,Proximity to cafes/restaurants,followup,2,2,,,,,,2022-01-26 20:19:30,3099
58043bb3bd8a970001fdef44,ma_choice_v3_pilot3,58043bb3bd8a970001fdef44,10,Amount of traffic,followup,2,2,,,,,,2022-01-26 20:19:30,3100
58043bb3bd8a970001fdef44,ma_choice_v3_pilot3,58043bb3bd8a970001fdef44,0,Proximity to parks,followup,2,2,,,,,,2022-01-26 20:19:30,3101
5b5b6c11f5bc590001177815,ma_choice_v3_pilot3,5b5b6c11f5bc590001177815,5,Amount of natural light,original,2,2,75,,,4118,,2022-01-26 20:19:33,3102
5b5b6c11f5bc590001177815,ma_choice_v3_pilot3,5b5b6c11f5bc590001177815,9,Quality of heat/AC system,original,2,2,87,,,3278,,2022-01-26 20:19:36,3103
5b5b6c11f5bc590001177815,ma_choice_v3_pilot3,5b5b6c11f5bc590001177815,2,Proximity to public transportation,original,2,2,12,,,3999,,2022-01-26 20:19:40,3104
5b5b6c11f5bc590001177815,ma_choice_v3_pilot3,5b5b6c11f5bc590001177815,6,Year building was built,original,2,2,62,,,3126,,2022-01-26 20:19:43,3105
5b5b6c11f5bc590001177815,ma_choice_v3_pilot3,5b5b6c11f5bc590001177815,8,Washer/dryer in unit,original,2,2,74,,,3774,,2022-01-26 20:19:47,3106
5b5b6c11f5bc590001177815,ma_choice_v3_pilot3,5b5b6c11f5bc590001177815,4,Reputation of closest school,original,2,2,96,,,3630,,2022-01-26 20:19:51,3107
5b5b6c11f5bc590001177815,ma_choice_v3_pilot3,5b5b6c11f5bc590001177815,10,Amount of traffic,original,2,2,75,,,3758,,2022-01-26 20:19:54,3108
5b5b6c11f5bc590001177815,ma_choice_v3_pilot3,5b5b6c11f5bc590001177815,7,Size of yard,original,2,2,95,,,2726,,2022-01-26 20:19:57,3109
5b5b6c11f5bc590001177815,ma_choice_v3_pilot3,5b5b6c11f5bc590001177815,1,Proximity to cafes/restaurants,original,2,2,78,,,2694,,2022-01-26 20:20:00,3110
5b5b6c11f5bc590001177815,ma_choice_v3_pilot3,5b5b6c11f5bc590001177815,11,Size of home,original,2,2,100,,,2942,,2022-01-26 20:20:03,3111
5b5b6c11f5bc590001177815,ma_choice_v3_pilot3,5b5b6c11f5bc590001177815,6,Year building was built,followup,2,2,,,,,,2022-01-26 20:20:10,3112
5b5b6c11f5bc590001177815,ma_choice_v3_pilot3,5b5b6c11f5bc590001177815,0,Proximity to parks,followup,2,2,,,,,,2022-01-26 20:20:10,3113
5b5b6c11f5bc590001177815,ma_choice_v3_pilot3,5b5b6c11f5bc590001177815,11,Size of home,followup,2,2,,,,,,2022-01-26 20:20:10,3114
5b5b6c11f5bc590001177815,ma_choice_v3_pilot3,5b5b6c11f5bc590001177815,9,Quality of heat/AC system,followup,2,2,,,,,,2022-01-26 20:20:10,3115
5b5b6c11f5bc590001177815,ma_choice_v3_pilot3,5b5b6c11f5bc590001177815,8,Washer/dryer in unit,followup,2,2,,,,,,2022-01-26 20:20:10,3116
5b5b6c11f5bc590001177815,ma_choice_v3_pilot3,5b5b6c11f5bc590001177815,10,Amount of traffic,followup,2,2,,,,,,2022-01-26 20:20:10,3117
5b5b6c11f5bc590001177815,ma_choice_v3_pilot3,5b5b6c11f5bc590001177815,4,Reputation of closest school,followup,2,2,,,,,,2022-01-26 20:20:10,3118
5b5b6c11f5bc590001177815,ma_choice_v3_pilot3,5b5b6c11f5bc590001177815,3,Noise pollution,followup,2,2,,,,,,2022-01-26 20:20:10,3119
5b5b6c11f5bc590001177815,ma_choice_v3_pilot3,5b5b6c11f5bc590001177815,7,Size of yard,followup,2,2,,,,,,2022-01-26 20:20:10,3120
5b5b6c11f5bc590001177815,ma_choice_v3_pilot3,5b5b6c11f5bc590001177815,1,Proximity to cafes/restaurants,followup,2,2,,,,,,2022-01-26 20:20:10,3121
5b5b6c11f5bc590001177815,ma_choice_v3_pilot3,5b5b6c11f5bc590001177815,2,Proximity to public transportation,followup,2,2,,,,,,2022-01-26 20:20:10,3122
5b5b6c11f5bc590001177815,ma_choice_v3_pilot3,5b5b6c11f5bc590001177815,5,Amount of natural light,followup,2,2,,,,,,2022-01-26 20:20:10,3123
58043bb3bd8a970001fdef44,ma_choice_v3_pilot3,58043bb3bd8a970001fdef44,3,Noise pollution,direction,2,2,-1,Very High,Very Low,7673,,2022-01-26 20:20:11,3124
58043bb3bd8a970001fdef44,ma_choice_v3_pilot3,58043bb3bd8a970001fdef44,1,Proximity to cafes/restaurants,direction,2,2,-1,25 min away,5 min away,7499,,2022-01-26 20:20:19,3125
58043bb3bd8a970001fdef44,ma_choice_v3_pilot3,58043bb3bd8a970001fdef44,11,Size of home,direction,2,2,-1,600 square feet,1800 square feet,4224,,2022-01-26 20:20:23,3126
58043bb3bd8a970001fdef44,ma_choice_v3_pilot3,58043bb3bd8a970001fdef44,0,Proximity to parks,direction,2,2,-1,25 min away,5 min away,6313,,2022-01-26 20:20:29,3127
5b5b6c11f5bc590001177815,ma_choice_v3_pilot3,5b5b6c11f5bc590001177815,7,Size of yard,direction,2,2,-1,500 square feet,1000 square feet,7815,,2022-01-26 20:20:30,3128
58043bb3bd8a970001fdef44,ma_choice_v3_pilot3,58043bb3bd8a970001fdef44,9,Quality of heat/AC system,direction,2,2,-1,Very Bad,Very Good,5264,,2022-01-26 20:20:35,3129
5b5b6c11f5bc590001177815,ma_choice_v3_pilot3,5b5b6c11f5bc590001177815,0,Proximity to parks,direction,2,2,-1,10 min away,5 min away,10319,,2022-01-26 20:20:40,3130
58043bb3bd8a970001fdef44,ma_choice_v3_pilot3,58043bb3bd8a970001fdef44,10,Amount of traffic,direction,2,2,-1,A Lot,Very Little,6607,,2022-01-26 20:20:41,3131
58043bb3bd8a970001fdef44,ma_choice_v3_pilot3,58043bb3bd8a970001fdef44,7,Size of yard,direction,2,2,-1,0 square feet,1000 square feet,3444,,2022-01-26 20:20:45,3132
5b5b6c11f5bc590001177815,ma_choice_v3_pilot3,5b5b6c11f5bc590001177815,11,Size of home,direction,2,2,-1,1800 square feet,1200 square feet,5990,,2022-01-26 20:20:46,3133
58043bb3bd8a970001fdef44,ma_choice_v3_pilot3,58043bb3bd8a970001fdef44,2,Proximity to public transportation,direction,2,2,-1,25 min away,5 min away,4003,,2022-01-26 20:20:49,3134
58043bb3bd8a970001fdef44,ma_choice_v3_pilot3,58043bb3bd8a970001fdef44,5,Amount of natural light,direction,2,2,-1,Very Little,A Lot,4037,,2022-01-26 20:20:53,3135
5b5b6c11f5bc590001177815,ma_choice_v3_pilot3,5b5b6c11f5bc590001177815,3,Noise pollution,direction,2,2,-1,High,High,8038,,2022-01-26 20:20:54,3136
58043bb3bd8a970001fdef44,ma_choice_v3_pilot3,58043bb3bd8a970001fdef44,8,Washer/dryer in unit,direction,2,2,-1,No,Yes,4750,,2022-01-26 20:20:57,3137
58043bb3bd8a970001fdef44,ma_choice_v3_pilot3,58043bb3bd8a970001fdef44,4,Reputation of closest school,direction,2,2,-1,Very Bad,Very Good,3390,,2022-01-26 20:21:01,3138
5b5b6c11f5bc590001177815,ma_choice_v3_pilot3,5b5b6c11f5bc590001177815,2,Proximity to public transportation,direction,2,2,-1,5 min away,5 min away,10158,,2022-01-26 20:21:04,3139
5f9f96c7ea7f965f92f5d488,ma_choice_v3_pilot3,5f9f96c7ea7f965f92f5d488,0,Quality of heat/AC system,original,,1,1,,,3475,,2022-01-26 20:21:07,3140
58043bb3bd8a970001fdef44,ma_choice_v3_pilot3,58043bb3bd8a970001fdef44,6,Year building was built,direction,2,2,-1,1950,2020,7469,,2022-01-26 20:21:08,3141
5b5b6c11f5bc590001177815,ma_choice_v3_pilot3,5b5b6c11f5bc590001177815,6,Year building was built,direction,2,2,-1,2020,1985,5774,,2022-01-26 20:21:10,3142
5b5b6c11f5bc590001177815,ma_choice_v3_pilot3,5b5b6c11f5bc590001177815,10,Amount of traffic,direction,2,2,-1,Very Little,Very Little,7655,,2022-01-26 20:21:18,3143
5b5b6c11f5bc590001177815,ma_choice_v3_pilot3,5b5b6c11f5bc590001177815,1,Proximity to cafes/restaurants,direction,2,2,-1,5 min away,5 min away,3910,,2022-01-26 20:21:22,3144
5b5b6c11f5bc590001177815,ma_choice_v3_pilot3,5b5b6c11f5bc590001177815,8,Washer/dryer in unit,direction,2,2,-1,No,Yes,8399,,2022-01-26 20:21:30,3145
5b5b6c11f5bc590001177815,ma_choice_v3_pilot3,5b5b6c11f5bc590001177815,5,Amount of natural light,direction,2,2,-1,A Moderate Amount,A Lot,8263,,2022-01-26 20:21:38,3146
5b5b6c11f5bc590001177815,ma_choice_v3_pilot3,5b5b6c11f5bc590001177815,4,Reputation of closest school,direction,2,2,-1,Very Good,Very Good,4326,,2022-01-26 20:21:43,3147
5b5b6c11f5bc590001177815,ma_choice_v3_pilot3,5b5b6c11f5bc590001177815,9,Quality of heat/AC system,direction,2,2,-1,Very Good,Very Good,3502,,2022-01-26 20:21:46,3148
5f9f96c7ea7f965f92f5d488,ma_choice_v3_pilot3,5f9f96c7ea7f965f92f5d488,10,Amount of traffic,followup,,1,0,,,3258,,2022-01-26 20:22:02,3149
5f9f96c7ea7f965f92f5d488,ma_choice_v3_pilot3,5f9f96c7ea7f965f92f5d488,1,Proximity to cafes/restaurants,followup,,1,0,,,3526,,2022-01-26 20:22:05,3150
5f9f96c7ea7f965f92f5d488,ma_choice_v3_pilot3,5f9f96c7ea7f965f92f5d488,5,Amount of natural light,followup,,1,0,,,2353,,2022-01-26 20:22:08,3151
5f9f96c7ea7f965f92f5d488,ma_choice_v3_pilot3,5f9f96c7ea7f965f92f5d488,6,Year building was built,followup,,1,0,,,2810,,2022-01-26 20:22:11,3152
5f9f96c7ea7f965f92f5d488,ma_choice_v3_pilot3,5f9f96c7ea7f965f92f5d488,9,Quality of heat/AC system,followup,,1,100,,,3343,,2022-01-26 20:22:14,3153
5f9f96c7ea7f965f92f5d488,ma_choice_v3_pilot3,5f9f96c7ea7f965f92f5d488,7,Size of yard,followup,,1,0,,,5447,,2022-01-26 20:22:19,3154
5f9f96c7ea7f965f92f5d488,ma_choice_v3_pilot3,5f9f96c7ea7f965f92f5d488,4,Reputation of closest school,followup,,1,0,,,2091,,2022-01-26 20:22:21,3155
5f9f96c7ea7f965f92f5d488,ma_choice_v3_pilot3,5f9f96c7ea7f965f92f5d488,3,Noise pollution,followup,,1,0,,,2297,,2022-01-26 20:22:24,3156
5f9f96c7ea7f965f92f5d488,ma_choice_v3_pilot3,5f9f96c7ea7f965f92f5d488,0,Proximity to parks,followup,,1,0,,,2140,,2022-01-26 20:22:26,3157
5f9f96c7ea7f965f92f5d488,ma_choice_v3_pilot3,5f9f96c7ea7f965f92f5d488,11,Size of home,followup,,1,12,,,3005,,2022-01-26 20:22:29,3158
5f9f96c7ea7f965f92f5d488,ma_choice_v3_pilot3,5f9f96c7ea7f965f92f5d488,2,Proximity to public transportation,followup,,1,0,,,2021,,2022-01-26 20:22:31,3159
5f9f96c7ea7f965f92f5d488,ma_choice_v3_pilot3,5f9f96c7ea7f965f92f5d488,8,Washer/dryer in unit,followup,,1,12,,,2839,,2022-01-26 20:22:34,3160
5f9f96c7ea7f965f92f5d488,ma_choice_v3_pilot3,5f9f96c7ea7f965f92f5d488,9,Quality of heat/AC system,direction,,1,-1,Very Bad,Very Good,8629,,2022-01-26 20:23:08,3161
5e29ada5d441690127fb5748,ma_choice_v3_pilot3,5e29ada5d441690127fb5748,4,Reputation of closest school,original,2,2,13,,,6833,,2022-01-26 20:23:11,3162
5f9f96c7ea7f965f92f5d488,ma_choice_v3_pilot3,5f9f96c7ea7f965f92f5d488,3,Noise pollution,direction,,1,-1,Very High,Very Low,6445,,2022-01-26 20:23:15,3163
5e29ada5d441690127fb5748,ma_choice_v3_pilot3,5e29ada5d441690127fb5748,9,Quality of heat/AC system,original,2,2,62,,,5750,,2022-01-26 20:23:17,3164
5f9f96c7ea7f965f92f5d488,ma_choice_v3_pilot3,5f9f96c7ea7f965f92f5d488,4,Reputation of closest school,direction,,1,-1,Moderate,Moderate,8400,,2022-01-26 20:23:23,3165
5e29ada5d441690127fb5748,ma_choice_v3_pilot3,5e29ada5d441690127fb5748,7,Size of yard,original,2,2,2,,,7853,,2022-01-26 20:23:25,3166
5e29ada5d441690127fb5748,ma_choice_v3_pilot3,5e29ada5d441690127fb5748,10,Amount of traffic,original,2,2,12,,,3504,,2022-01-26 20:23:28,3167
5f9f96c7ea7f965f92f5d488,ma_choice_v3_pilot3,5f9f96c7ea7f965f92f5d488,1,Proximity to cafes/restaurants,direction,,1,-1,25 min away,15 min away,9037,,2022-01-26 20:23:32,3168
5e29ada5d441690127fb5748,ma_choice_v3_pilot3,5e29ada5d441690127fb5748,2,Proximity to public transportation,original,2,2,2,,,5217,,2022-01-26 20:23:34,3169
5e29ada5d441690127fb5748,ma_choice_v3_pilot3,5e29ada5d441690127fb5748,6,Year building was built,original,2,2,74,,,3402,,2022-01-26 20:23:37,3170
5f9f96c7ea7f965f92f5d488,ma_choice_v3_pilot3,5f9f96c7ea7f965f92f5d488,2,Proximity to public transportation,direction,,1,-1,25 min away,10 min away,5337,,2022-01-26 20:23:38,3171
5f9f96c7ea7f965f92f5d488,ma_choice_v3_pilot3,5f9f96c7ea7f965f92f5d488,6,Year building was built,direction,,1,-1,1950,1985,5337,,2022-01-26 20:23:43,3172
5e29ada5d441690127fb5748,ma_choice_v3_pilot3,5e29ada5d441690127fb5748,0,Proximity to parks,original,2,2,1,,,6243,,2022-01-26 20:23:43,3173
5f9f96c7ea7f965f92f5d488,ma_choice_v3_pilot3,5f9f96c7ea7f965f92f5d488,7,Size of yard,direction,,1,-1,0 square feet,1000 square feet,4675,,2022-01-26 20:23:48,3174
5e29ada5d441690127fb5748,ma_choice_v3_pilot3,5e29ada5d441690127fb5748,11,Size of home,original,2,2,88,,,4433,,2022-01-26 20:23:48,3175
5f9f96c7ea7f965f92f5d488,ma_choice_v3_pilot3,5f9f96c7ea7f965f92f5d488,5,Amount of natural light,direction,,1,-1,Very Little,A Moderate Amount,3124,,2022-01-26 20:23:51,3176
5e29ada5d441690127fb5748,ma_choice_v3_pilot3,5e29ada5d441690127fb5748,5,Amount of natural light,original,2,2,2,,,5930,,2022-01-26 20:23:54,3177
5f9f96c7ea7f965f92f5d488,ma_choice_v3_pilot3,5f9f96c7ea7f965f92f5d488,8,Washer/dryer in unit,direction,,1,-1,No,Yes,3777,,2022-01-26 20:23:54,3178
5e29ada5d441690127fb5748,ma_choice_v3_pilot3,5e29ada5d441690127fb5748,3,Noise pollution,original,2,2,13,,,3181,,2022-01-26 20:23:57,3179
5f9f96c7ea7f965f92f5d488,ma_choice_v3_pilot3,5f9f96c7ea7f965f92f5d488,11,Size of home,direction,,1,-1,600 square feet,1200 square feet,3067,,2022-01-26 20:23:58,3180
5e29ada5d441690127fb5748,ma_choice_v3_pilot3,5e29ada5d441690127fb5748,8,Washer/dryer in unit,original,2,2,76,,,3016,,2022-01-26 20:24:00,3181
5f9f96c7ea7f965f92f5d488,ma_choice_v3_pilot3,5f9f96c7ea7f965f92f5d488,0,Proximity to parks,direction,,1,-1,20 min away,10 min away,4260,,2022-01-26 20:24:02,3182
5e29ada5d441690127fb5748,ma_choice_v3_pilot3,5e29ada5d441690127fb5748,1,Proximity to cafes/restaurants,original,2,2,3,,,4405,,2022-01-26 20:24:04,3183
5f9f96c7ea7f965f92f5d488,ma_choice_v3_pilot3,5f9f96c7ea7f965f92f5d488,10,Amount of traffic,direction,,1,-1,A Lot,Very Little,5153,,2022-01-26 20:24:07,3184
5e29ada5d441690127fb5748,ma_choice_v3_pilot3,5e29ada5d441690127fb5748,5,Amount of natural light,followup,2,2,,,,,,2022-01-26 20:24:23,3185
5e29ada5d441690127fb5748,ma_choice_v3_pilot3,5e29ada5d441690127fb5748,11,Size of home,followup,2,2,,,,,,2022-01-26 20:24:23,3186
5e29ada5d441690127fb5748,ma_choice_v3_pilot3,5e29ada5d441690127fb5748,0,Proximity to parks,followup,2,2,,,,,,2022-01-26 20:24:23,3187
5e29ada5d441690127fb5748,ma_choice_v3_pilot3,5e29ada5d441690127fb5748,4,Reputation of closest school,followup,2,2,,,,,,2022-01-26 20:24:23,3188
5e29ada5d441690127fb5748,ma_choice_v3_pilot3,5e29ada5d441690127fb5748,3,Noise pollution,followup,2,2,,,,,,2022-01-26 20:24:23,3189
5e29ada5d441690127fb5748,ma_choice_v3_pilot3,5e29ada5d441690127fb5748,9,Quality of heat/AC system,followup,2,2,,,,,,2022-01-26 20:24:23,3190
5e29ada5d441690127fb5748,ma_choice_v3_pilot3,5e29ada5d441690127fb5748,7,Size of yard,followup,2,2,,,,,,2022-01-26 20:24:23,3191
5e29ada5d441690127fb5748,ma_choice_v3_pilot3,5e29ada5d441690127fb5748,10,Amount of traffic,followup,2,2,,,,,,2022-01-26 20:24:23,3192
5e29ada5d441690127fb5748,ma_choice_v3_pilot3,5e29ada5d441690127fb5748,1,Proximity to cafes/restaurants,followup,2,2,,,,,,2022-01-26 20:24:23,3193
5e29ada5d441690127fb5748,ma_choice_v3_pilot3,5e29ada5d441690127fb5748,8,Washer/dryer in unit,followup,2,2,,,,,,2022-01-26 20:24:23,3194
5e29ada5d441690127fb5748,ma_choice_v3_pilot3,5e29ada5d441690127fb5748,2,Proximity to public transportation,followup,2,2,,,,,,2022-01-26 20:24:23,3195
5e29ada5d441690127fb5748,ma_choice_v3_pilot3,5e29ada5d441690127fb5748,6,Year building was built,followup,2,2,,,,,,2022-01-26 20:24:23,3196
5e29ada5d441690127fb5748,ma_choice_v3_pilot3,5e29ada5d441690127fb5748,4,Reputation of closest school,direction,2,2,-1,Very Bad,Very Good,14882,,2022-01-26 20:25:04,3197
5e29ada5d441690127fb5748,ma_choice_v3_pilot3,5e29ada5d441690127fb5748,3,Noise pollution,direction,2,2,-1,Very High,Very Low,21522,,2022-01-26 20:25:25,3198
5e29ada5d441690127fb5748,ma_choice_v3_pilot3,5e29ada5d441690127fb5748,11,Size of home,direction,2,2,-1,600 square feet,1800 square feet,10934,,2022-01-26 20:25:36,3199
5e29ada5d441690127fb5748,ma_choice_v3_pilot3,5e29ada5d441690127fb5748,8,Washer/dryer in unit,direction,2,2,-1,No,Yes,12623,,2022-01-26 20:25:49,3200
5e29ada5d441690127fb5748,ma_choice_v3_pilot3,5e29ada5d441690127fb5748,1,Proximity to cafes/restaurants,direction,2,2,-1,25 min away,5 min away,10499,,2022-01-26 20:25:59,3201
5e29ada5d441690127fb5748,ma_choice_v3_pilot3,5e29ada5d441690127fb5748,0,Proximity to parks,direction,2,2,-1,25 min away,5 min away,8971,,2022-01-26 20:26:08,3202
5e29ada5d441690127fb5748,ma_choice_v3_pilot3,5e29ada5d441690127fb5748,7,Size of yard,direction,2,2,-1,0 square feet,1000 square feet,77239,,2022-01-26 20:27:26,3203
5e29ada5d441690127fb5748,ma_choice_v3_pilot3,5e29ada5d441690127fb5748,2,Proximity to public transportation,direction,2,2,-1,25 min away,5 min away,8692,,2022-01-26 20:27:34,3204
5e29ada5d441690127fb5748,ma_choice_v3_pilot3,5e29ada5d441690127fb5748,5,Amount of natural light,direction,2,2,-1,A Lot,A Little,13557,,2022-01-26 20:27:49,3205
5ffd0c9a38e1701dd161d59b,ma_choice_v3_pilot3,5ffd0c9a38e1701dd161d59b,3,Noise pollution,original,2,2,75,,,5121,,2022-01-26 20:27:55,3206
5ffd0c9a38e1701dd161d59b,ma_choice_v3_pilot3,5ffd0c9a38e1701dd161d59b,9,Quality of heat/AC system,original,2,2,50,,,3588,,2022-01-26 20:27:58,3207
5ffd0c9a38e1701dd161d59b,ma_choice_v3_pilot3,5ffd0c9a38e1701dd161d59b,10,Amount of traffic,original,2,2,50,,,2622,,2022-01-26 20:28:01,3208
5ffd0c9a38e1701dd161d59b,ma_choice_v3_pilot3,5ffd0c9a38e1701dd161d59b,5,Amount of natural light,original,2,2,50,,,3275,,2022-01-26 20:28:04,3209
5ffd0c9a38e1701dd161d59b,ma_choice_v3_pilot3,5ffd0c9a38e1701dd161d59b,7,Size of yard,original,2,2,88,,,2727,,2022-01-26 20:28:07,3210
5ffd0c9a38e1701dd161d59b,ma_choice_v3_pilot3,5ffd0c9a38e1701dd161d59b,1,Proximity to cafes/restaurants,original,2,2,0,,,2570,,2022-01-26 20:28:09,3211
5e29ada5d441690127fb5748,ma_choice_v3_pilot3,5e29ada5d441690127fb5748,6,Year building was built,direction,2,2,-1,1950,2020,25691,,2022-01-26 20:28:13,3212
5ffd0c9a38e1701dd161d59b,ma_choice_v3_pilot3,5ffd0c9a38e1701dd161d59b,11,Size of home,original,2,2,87,,,4609,,2022-01-26 20:28:14,3213
5ffd0c9a38e1701dd161d59b,ma_choice_v3_pilot3,5ffd0c9a38e1701dd161d59b,0,Proximity to parks,original,2,2,0,,,2323,,2022-01-26 20:28:16,3214
5ffd0c9a38e1701dd161d59b,ma_choice_v3_pilot3,5ffd0c9a38e1701dd161d59b,2,Proximity to public transportation,original,2,2,0,,,2082,,2022-01-26 20:28:18,3215
5e29ada5d441690127fb5748,ma_choice_v3_pilot3,5e29ada5d441690127fb5748,9,Quality of heat/AC system,direction,2,2,-1,Very Bad,Very Good,7362,,2022-01-26 20:28:21,3216
5ffd0c9a38e1701dd161d59b,ma_choice_v3_pilot3,5ffd0c9a38e1701dd161d59b,8,Washer/dryer in unit,original,2,2,12,,,2479,,2022-01-26 20:28:21,3217
5ffd0c9a38e1701dd161d59b,ma_choice_v3_pilot3,5ffd0c9a38e1701dd161d59b,6,Year building was built,original,2,2,0,,,2577,,2022-01-26 20:28:24,3218
5ffd0c9a38e1701dd161d59b,ma_choice_v3_pilot3,5ffd0c9a38e1701dd161d59b,4,Reputation of closest school,original,2,2,0,,,2211,,2022-01-26 20:28:26,3219
5e29ada5d441690127fb5748,ma_choice_v3_pilot3,5e29ada5d441690127fb5748,10,Amount of traffic,direction,2,2,-1,A Lot,Very Little,12687,,2022-01-26 20:28:34,3220
5ffd0c9a38e1701dd161d59b,ma_choice_v3_pilot3,5ffd0c9a38e1701dd161d59b,11,Size of home,followup,2,2,,,,,,2022-01-26 20:28:41,3221
5ffd0c9a38e1701dd161d59b,ma_choice_v3_pilot3,5ffd0c9a38e1701dd161d59b,7,Size of yard,followup,2,2,,,,,,2022-01-26 20:28:41,3222
5ffd0c9a38e1701dd161d59b,ma_choice_v3_pilot3,5ffd0c9a38e1701dd161d59b,10,Amount of traffic,followup,2,2,,,,,,2022-01-26 20:28:41,3223
5ffd0c9a38e1701dd161d59b,ma_choice_v3_pilot3,5ffd0c9a38e1701dd161d59b,5,Amount of natural light,followup,2,2,,,,,,2022-01-26 20:28:41,3224
5ffd0c9a38e1701dd161d59b,ma_choice_v3_pilot3,5ffd0c9a38e1701dd161d59b,0,Proximity to parks,followup,2,2,,,,,,2022-01-26 20:28:41,3225
5ffd0c9a38e1701dd161d59b,ma_choice_v3_pilot3,5ffd0c9a38e1701dd161d59b,4,Reputation of closest school,followup,2,2,,,,,,2022-01-26 20:28:41,3226
5ffd0c9a38e1701dd161d59b,ma_choice_v3_pilot3,5ffd0c9a38e1701dd161d59b,3,Noise pollution,followup,2,2,,,,,,2022-01-26 20:28:41,3227
5ffd0c9a38e1701dd161d59b,ma_choice_v3_pilot3,5ffd0c9a38e1701dd161d59b,1,Proximity to cafes/restaurants,followup,2,2,,,,,,2022-01-26 20:28:41,3228
5ffd0c9a38e1701dd161d59b,ma_choice_v3_pilot3,5ffd0c9a38e1701dd161d59b,8,Washer/dryer in unit,followup,2,2,,,,,,2022-01-26 20:28:41,3229
5ffd0c9a38e1701dd161d59b,ma_choice_v3_pilot3,5ffd0c9a38e1701dd161d59b,6,Year building was built,followup,2,2,,,,,,2022-01-26 20:28:41,3230
5ffd0c9a38e1701dd161d59b,ma_choice_v3_pilot3,5ffd0c9a38e1701dd161d59b,9,Quality of heat/AC system,followup,2,2,,,,,,2022-01-26 20:28:41,3231
5ffd0c9a38e1701dd161d59b,ma_choice_v3_pilot3,5ffd0c9a38e1701dd161d59b,2,Proximity to public transportation,followup,2,2,,,,,,2022-01-26 20:28:41,3232
5ffd0c9a38e1701dd161d59b,ma_choice_v3_pilot3,5ffd0c9a38e1701dd161d59b,0,Proximity to parks,direction,2,2,-1,25 min away,15 min away,12082,,2022-01-26 20:29:34,3233
5ffd0c9a38e1701dd161d59b,ma_choice_v3_pilot3,5ffd0c9a38e1701dd161d59b,7,Size of yard,direction,2,2,-1,0 square feet,1000 square feet,8044,,2022-01-26 20:29:42,3234
5ffd0c9a38e1701dd161d59b,ma_choice_v3_pilot3,5ffd0c9a38e1701dd161d59b,9,Quality of heat/AC system,direction,2,2,-1,Very Bad,Very Good,6079,,2022-01-26 20:29:48,3235
5ffd0c9a38e1701dd161d59b,ma_choice_v3_pilot3,5ffd0c9a38e1701dd161d59b,3,Noise pollution,direction,2,2,-1,Moderate,Very Low,7077,,2022-01-26 20:29:55,3236
5ffd0c9a38e1701dd161d59b,ma_choice_v3_pilot3,5ffd0c9a38e1701dd161d59b,11,Size of home,direction,2,2,-1,600 square feet,1800 square feet,6875,,2022-01-26 20:30:02,3237
5ffd0c9a38e1701dd161d59b,ma_choice_v3_pilot3,5ffd0c9a38e1701dd161d59b,10,Amount of traffic,direction,2,2,-1,A Lot,Very Little,12440,,2022-01-26 20:30:14,3238
5ffd0c9a38e1701dd161d59b,ma_choice_v3_pilot3,5ffd0c9a38e1701dd161d59b,6,Year building was built,direction,2,2,-1,1950,2020,7324,,2022-01-26 20:30:22,3239
5ffd0c9a38e1701dd161d59b,ma_choice_v3_pilot3,5ffd0c9a38e1701dd161d59b,5,Amount of natural light,direction,2,2,-1,A Little,A Lot,8119,,2022-01-26 20:30:30,3240
5ffd0c9a38e1701dd161d59b,ma_choice_v3_pilot3,5ffd0c9a38e1701dd161d59b,4,Reputation of closest school,direction,2,2,-1,Good,Very Good,7107,,2022-01-26 20:30:37,3241
5ffd0c9a38e1701dd161d59b,ma_choice_v3_pilot3,5ffd0c9a38e1701dd161d59b,2,Proximity to public transportation,direction,2,2,-1,20 min away,15 min away,9102,,2022-01-26 20:30:46,3242
5ffd0c9a38e1701dd161d59b,ma_choice_v3_pilot3,5ffd0c9a38e1701dd161d59b,1,Proximity to cafes/restaurants,direction,2,2,-1,15 min away,10 min away,4879,,2022-01-26 20:30:51,3243
5ffd0c9a38e1701dd161d59b,ma_choice_v3_pilot3,5ffd0c9a38e1701dd161d59b,8,Washer/dryer in unit,direction,2,2,-1,No,Yes,5270,,2022-01-26 20:30:56,3244
61141ef53317a3f90b098b66,ma_choice_v3_pilot3,61141ef53317a3f90b098b66,6,Year building was built,original,2,2,37,,,4905,,2022-01-26 20:31:43,3245
61141ef53317a3f90b098b66,ma_choice_v3_pilot3,61141ef53317a3f90b098b66,4,Reputation of closest school,original,2,2,0,,,3670,,2022-01-26 20:31:46,3246
61141ef53317a3f90b098b66,ma_choice_v3_pilot3,61141ef53317a3f90b098b66,1,Proximity to cafes/restaurants,original,2,2,24,,,3796,,2022-01-26 20:31:50,3247
61141ef53317a3f90b098b66,ma_choice_v3_pilot3,61141ef53317a3f90b098b66,8,Washer/dryer in unit,original,2,2,87,,,6339,,2022-01-26 20:31:57,3248
61141ef53317a3f90b098b66,ma_choice_v3_pilot3,61141ef53317a3f90b098b66,5,Amount of natural light,original,2,2,79,,,3186,,2022-01-26 20:32:00,3249
61141ef53317a3f90b098b66,ma_choice_v3_pilot3,61141ef53317a3f90b098b66,2,Proximity to public transportation,original,2,2,37,,,4318,,2022-01-26 20:32:04,3250
61141ef53317a3f90b098b66,ma_choice_v3_pilot3,61141ef53317a3f90b098b66,10,Amount of traffic,original,2,2,0,,,2839,,2022-01-26 20:32:07,3251
61141ef53317a3f90b098b66,ma_choice_v3_pilot3,61141ef53317a3f90b098b66,0,Proximity to parks,original,2,2,48,,,3203,,2022-01-26 20:32:10,3252
61141ef53317a3f90b098b66,ma_choice_v3_pilot3,61141ef53317a3f90b098b66,9,Quality of heat/AC system,original,2,2,100,,,2718,,2022-01-26 20:32:13,3253
61141ef53317a3f90b098b66,ma_choice_v3_pilot3,61141ef53317a3f90b098b66,11,Size of home,original,2,2,51,,,3056,,2022-01-26 20:32:16,3254
61141ef53317a3f90b098b66,ma_choice_v3_pilot3,61141ef53317a3f90b098b66,7,Size of yard,original,2,2,38,,,3191,,2022-01-26 20:32:19,3255
61141ef53317a3f90b098b66,ma_choice_v3_pilot3,61141ef53317a3f90b098b66,3,Noise pollution,original,2,2,50,,,3314,,2022-01-26 20:32:22,3256
61141ef53317a3f90b098b66,ma_choice_v3_pilot3,61141ef53317a3f90b098b66,8,Washer/dryer in unit,followup,2,2,,,,,,2022-01-26 20:32:41,3257
61141ef53317a3f90b098b66,ma_choice_v3_pilot3,61141ef53317a3f90b098b66,0,Proximity to parks,followup,2,2,,,,,,2022-01-26 20:32:41,3258
61141ef53317a3f90b098b66,ma_choice_v3_pilot3,61141ef53317a3f90b098b66,3,Noise pollution,followup,2,2,,,,,,2022-01-26 20:32:41,3259
61141ef53317a3f90b098b66,ma_choice_v3_pilot3,61141ef53317a3f90b098b66,7,Size of yard,followup,2,2,,,,,,2022-01-26 20:32:41,3260
61141ef53317a3f90b098b66,ma_choice_v3_pilot3,61141ef53317a3f90b098b66,10,Amount of traffic,followup,2,2,,,,,,2022-01-26 20:32:41,3261
61141ef53317a3f90b098b66,ma_choice_v3_pilot3,61141ef53317a3f90b098b66,6,Year building was built,followup,2,2,,,,,,2022-01-26 20:32:41,3262
61141ef53317a3f90b098b66,ma_choice_v3_pilot3,61141ef53317a3f90b098b66,1,Proximity to cafes/restaurants,followup,2,2,,,,,,2022-01-26 20:32:41,3263
61141ef53317a3f90b098b66,ma_choice_v3_pilot3,61141ef53317a3f90b098b66,2,Proximity to public transportation,followup,2,2,,,,,,2022-01-26 20:32:41,3264
61141ef53317a3f90b098b66,ma_choice_v3_pilot3,61141ef53317a3f90b098b66,5,Amount of natural light,followup,2,2,,,,,,2022-01-26 20:32:41,3265
61141ef53317a3f90b098b66,ma_choice_v3_pilot3,61141ef53317a3f90b098b66,9,Quality of heat/AC system,followup,2,2,,,,,,2022-01-26 20:32:41,3266
61141ef53317a3f90b098b66,ma_choice_v3_pilot3,61141ef53317a3f90b098b66,11,Size of home,followup,2,2,,,,,,2022-01-26 20:32:41,3267
61141ef53317a3f90b098b66,ma_choice_v3_pilot3,61141ef53317a3f90b098b66,4,Reputation of closest school,followup,2,2,,,,,,2022-01-26 20:32:41,3268
61141ef53317a3f90b098b66,ma_choice_v3_pilot3,61141ef53317a3f90b098b66,5,Amount of natural light,direction,2,2,-1,Very Little,A Lot,15059,,2022-01-26 20:33:35,3269
61141ef53317a3f90b098b66,ma_choice_v3_pilot3,61141ef53317a3f90b098b66,3,Noise pollution,direction,2,2,-1,Very High,Low,8883,,2022-01-26 20:33:44,3270
61141ef53317a3f90b098b66,ma_choice_v3_pilot3,61141ef53317a3f90b098b66,8,Washer/dryer in unit,direction,2,2,-1,No,Yes,4193,,2022-01-26 20:33:48,3271
61141ef53317a3f90b098b66,ma_choice_v3_pilot3,61141ef53317a3f90b098b66,1,Proximity to cafes/restaurants,direction,2,2,-1,25 min away,10 min away,7795,,2022-01-26 20:33:56,3272
61141ef53317a3f90b098b66,ma_choice_v3_pilot3,61141ef53317a3f90b098b66,4,Reputation of closest school,direction,2,2,-1,Very Bad,Moderate,8987,,2022-01-26 20:34:05,3273
61141ef53317a3f90b098b66,ma_choice_v3_pilot3,61141ef53317a3f90b098b66,11,Size of home,direction,2,2,-1,600 square feet,1800 square feet,4887,,2022-01-26 20:34:10,3274
61141ef53317a3f90b098b66,ma_choice_v3_pilot3,61141ef53317a3f90b098b66,0,Proximity to parks,direction,2,2,-1,25 min away,10 min away,7259,,2022-01-26 20:34:17,3275
61141ef53317a3f90b098b66,ma_choice_v3_pilot3,61141ef53317a3f90b098b66,10,Amount of traffic,direction,2,2,-1,A Lot,A Little,4693,,2022-01-26 20:34:22,3276
61141ef53317a3f90b098b66,ma_choice_v3_pilot3,61141ef53317a3f90b098b66,6,Year building was built,direction,2,2,-1,1950,2020,6196,,2022-01-26 20:34:28,3277
61141ef53317a3f90b098b66,ma_choice_v3_pilot3,61141ef53317a3f90b098b66,7,Size of yard,direction,2,2,-1,0 square feet,500 square feet,5634,,2022-01-26 20:34:33,3278
61141ef53317a3f90b098b66,ma_choice_v3_pilot3,61141ef53317a3f90b098b66,9,Quality of heat/AC system,direction,2,2,-1,Very Bad,Very Good,4735,,2022-01-26 20:34:38,3279
61141ef53317a3f90b098b66,ma_choice_v3_pilot3,61141ef53317a3f90b098b66,2,Proximity to public transportation,direction,2,2,-1,25 min away,10 min away,5552,,2022-01-26 20:34:44,3280
60d79f82b917a3cfd6643432,ma_choice_v3_pilot3,60d79f82b917a3cfd6643432,9,Quality of heat/AC system,original,2,2,50,,,5675,,2022-01-26 20:34:50,3281
60d79f82b917a3cfd6643432,ma_choice_v3_pilot3,60d79f82b917a3cfd6643432,1,Proximity to cafes/restaurants,original,2,2,1,,,3653,,2022-01-26 20:34:53,3282
60d79f82b917a3cfd6643432,ma_choice_v3_pilot3,60d79f82b917a3cfd6643432,11,Size of home,original,2,2,87,,,6691,,2022-01-26 20:35:00,3283
60d79f82b917a3cfd6643432,ma_choice_v3_pilot3,60d79f82b917a3cfd6643432,6,Year building was built,original,2,2,0,,,3185,,2022-01-26 20:35:03,3284
60d79f82b917a3cfd6643432,ma_choice_v3_pilot3,60d79f82b917a3cfd6643432,8,Washer/dryer in unit,original,2,2,25,,,3277,,2022-01-26 20:35:06,3285
60d79f82b917a3cfd6643432,ma_choice_v3_pilot3,60d79f82b917a3cfd6643432,4,Reputation of closest school,original,2,2,0,,,2780,,2022-01-26 20:35:09,3286
60d79f82b917a3cfd6643432,ma_choice_v3_pilot3,60d79f82b917a3cfd6643432,10,Amount of traffic,original,2,2,39,,,6200,,2022-01-26 20:35:15,3287
60d79f82b917a3cfd6643432,ma_choice_v3_pilot3,60d79f82b917a3cfd6643432,5,Amount of natural light,original,2,2,12,,,4420,,2022-01-26 20:35:20,3288
60d79f82b917a3cfd6643432,ma_choice_v3_pilot3,60d79f82b917a3cfd6643432,2,Proximity to public transportation,original,2,2,0,,,2717,,2022-01-26 20:35:23,3289
60d79f82b917a3cfd6643432,ma_choice_v3_pilot3,60d79f82b917a3cfd6643432,7,Size of yard,original,2,2,62,,,3219,,2022-01-26 20:35:26,3290
60d79f82b917a3cfd6643432,ma_choice_v3_pilot3,60d79f82b917a3cfd6643432,0,Proximity to parks,original,2,2,0,,,3593,,2022-01-26 20:35:29,3291
60d79f82b917a3cfd6643432,ma_choice_v3_pilot3,60d79f82b917a3cfd6643432,3,Noise pollution,original,2,2,93,,,4413,,2022-01-26 20:35:34,3292
60d79f82b917a3cfd6643432,ma_choice_v3_pilot3,60d79f82b917a3cfd6643432,7,Size of yard,followup,2,2,,,,,,2022-01-26 20:35:47,3293
60d79f82b917a3cfd6643432,ma_choice_v3_pilot3,60d79f82b917a3cfd6643432,8,Washer/dryer in unit,followup,2,2,,,,,,2022-01-26 20:35:47,3294
60d79f82b917a3cfd6643432,ma_choice_v3_pilot3,60d79f82b917a3cfd6643432,6,Year building was built,followup,2,2,,,,,,2022-01-26 20:35:47,3295
60d79f82b917a3cfd6643432,ma_choice_v3_pilot3,60d79f82b917a3cfd6643432,11,Size of home,followup,2,2,,,,,,2022-01-26 20:35:47,3296
60d79f82b917a3cfd6643432,ma_choice_v3_pilot3,60d79f82b917a3cfd6643432,9,Quality of heat/AC system,followup,2,2,,,,,,2022-01-26 20:35:47,3297
60d79f82b917a3cfd6643432,ma_choice_v3_pilot3,60d79f82b917a3cfd6643432,0,Proximity to parks,followup,2,2,,,,,,2022-01-26 20:35:47,3298
60d79f82b917a3cfd6643432,ma_choice_v3_pilot3,60d79f82b917a3cfd6643432,3,Noise pollution,followup,2,2,,,,,,2022-01-26 20:35:47,3299
60d79f82b917a3cfd6643432,ma_choice_v3_pilot3,60d79f82b917a3cfd6643432,10,Amount of traffic,followup,2,2,,,,,,2022-01-26 20:35:47,3300
60d79f82b917a3cfd6643432,ma_choice_v3_pilot3,60d79f82b917a3cfd6643432,4,Reputation of closest school,followup,2,2,,,,,,2022-01-26 20:35:47,3301
60d79f82b917a3cfd6643432,ma_choice_v3_pilot3,60d79f82b917a3cfd6643432,5,Amount of natural light,followup,2,2,,,,,,2022-01-26 20:35:47,3302
60d79f82b917a3cfd6643432,ma_choice_v3_pilot3,60d79f82b917a3cfd6643432,1,Proximity to cafes/restaurants,followup,2,2,,,,,,2022-01-26 20:35:47,3303
60d79f82b917a3cfd6643432,ma_choice_v3_pilot3,60d79f82b917a3cfd6643432,2,Proximity to public transportation,followup,2,2,,,,,,2022-01-26 20:35:47,3304
60d79f82b917a3cfd6643432,ma_choice_v3_pilot3,60d79f82b917a3cfd6643432,2,Proximity to public transportation,direction,2,2,-1,25 min away,10 min away,12075,,2022-01-26 20:36:17,3305
60d79f82b917a3cfd6643432,ma_choice_v3_pilot3,60d79f82b917a3cfd6643432,7,Size of yard,direction,2,2,-1,0 square feet,1000 square feet,8602,,2022-01-26 20:36:26,3306
60d79f82b917a3cfd6643432,ma_choice_v3_pilot3,60d79f82b917a3cfd6643432,4,Reputation of closest school,direction,2,2,-1,Very Bad,Very Good,4941,,2022-01-26 20:36:31,3307
60d79f82b917a3cfd6643432,ma_choice_v3_pilot3,60d79f82b917a3cfd6643432,3,Noise pollution,direction,2,2,-1,Very High,Very Low,6344,,2022-01-26 20:36:37,3308
60d79f82b917a3cfd6643432,ma_choice_v3_pilot3,60d79f82b917a3cfd6643432,5,Amount of natural light,direction,2,2,-1,Very Little,A Lot,6610,,2022-01-26 20:36:44,3309
60d79f82b917a3cfd6643432,ma_choice_v3_pilot3,60d79f82b917a3cfd6643432,11,Size of home,direction,2,2,-1,600 square feet,1800 square feet,3864,,2022-01-26 20:36:47,3310
60d79f82b917a3cfd6643432,ma_choice_v3_pilot3,60d79f82b917a3cfd6643432,1,Proximity to cafes/restaurants,direction,2,2,-1,5 min away,20 min away,9431,,2022-01-26 20:36:57,3311
60d79f82b917a3cfd6643432,ma_choice_v3_pilot3,60d79f82b917a3cfd6643432,6,Year building was built,direction,2,2,-1,1950,2020,4287,,2022-01-26 20:37:01,3312
60d79f82b917a3cfd6643432,ma_choice_v3_pilot3,60d79f82b917a3cfd6643432,10,Amount of traffic,direction,2,2,-1,A Lot,Very Little,6887,,2022-01-26 20:37:08,3313
60d79f82b917a3cfd6643432,ma_choice_v3_pilot3,60d79f82b917a3cfd6643432,0,Proximity to parks,direction,2,2,-1,25 min away,10 min away,9513,,2022-01-26 20:37:18,3314
60d79f82b917a3cfd6643432,ma_choice_v3_pilot3,60d79f82b917a3cfd6643432,9,Quality of heat/AC system,direction,2,2,-1,Very Bad,Very Good,5338,,2022-01-26 20:37:23,3315
60d79f82b917a3cfd6643432,ma_choice_v3_pilot3,60d79f82b917a3cfd6643432,8,Washer/dryer in unit,direction,2,2,-1,No,Yes,5240,,2022-01-26 20:37:28,3316
578e8bd7baec1b00016977c1,ma_choice_v3_pilot3,578e8bd7baec1b00016977c1,9,Quality of heat/AC system,original,2,2,62,,,9201,,2022-01-26 20:37:59,3317
578e8bd7baec1b00016977c1,ma_choice_v3_pilot3,578e8bd7baec1b00016977c1,7,Size of yard,original,2,2,25,,,4539,,2022-01-26 20:38:03,3318
578e8bd7baec1b00016977c1,ma_choice_v3_pilot3,578e8bd7baec1b00016977c1,8,Washer/dryer in unit,original,2,2,61,,,3258,,2022-01-26 20:38:07,3319
578e8bd7baec1b00016977c1,ma_choice_v3_pilot3,578e8bd7baec1b00016977c1,4,Reputation of closest school,original,2,2,88,,,3218,,2022-01-26 20:38:10,3320
578e8bd7baec1b00016977c1,ma_choice_v3_pilot3,578e8bd7baec1b00016977c1,5,Amount of natural light,original,2,2,24,,,2715,,2022-01-26 20:38:12,3321
578e8bd7baec1b00016977c1,ma_choice_v3_pilot3,578e8bd7baec1b00016977c1,0,Proximity to parks,original,2,2,5,,,4727,,2022-01-26 20:38:17,3322
578e8bd7baec1b00016977c1,ma_choice_v3_pilot3,578e8bd7baec1b00016977c1,11,Size of home,original,2,2,87,,,3361,,2022-01-26 20:38:21,3323
578e8bd7baec1b00016977c1,ma_choice_v3_pilot3,578e8bd7baec1b00016977c1,1,Proximity to cafes/restaurants,original,2,2,11,,,3666,,2022-01-26 20:38:24,3324
578e8bd7baec1b00016977c1,ma_choice_v3_pilot3,578e8bd7baec1b00016977c1,6,Year building was built,original,2,2,11,,,2980,,2022-01-26 20:38:27,3325
578e8bd7baec1b00016977c1,ma_choice_v3_pilot3,578e8bd7baec1b00016977c1,3,Noise pollution,original,2,2,21,,,5319,,2022-01-26 20:38:33,3326
578e8bd7baec1b00016977c1,ma_choice_v3_pilot3,578e8bd7baec1b00016977c1,10,Amount of traffic,original,2,2,24,,,2382,,2022-01-26 20:38:35,3327
578e8bd7baec1b00016977c1,ma_choice_v3_pilot3,578e8bd7baec1b00016977c1,2,Proximity to public transportation,original,2,2,0,,,3046,,2022-01-26 20:38:38,3328
578e8bd7baec1b00016977c1,ma_choice_v3_pilot3,578e8bd7baec1b00016977c1,7,Size of yard,followup,2,2,,,,,,2022-01-26 20:38:52,3329
578e8bd7baec1b00016977c1,ma_choice_v3_pilot3,578e8bd7baec1b00016977c1,2,Proximity to public transportation,followup,2,2,,,,,,2022-01-26 20:38:52,3330
578e8bd7baec1b00016977c1,ma_choice_v3_pilot3,578e8bd7baec1b00016977c1,6,Year building was built,followup,2,2,,,,,,2022-01-26 20:38:52,3331
578e8bd7baec1b00016977c1,ma_choice_v3_pilot3,578e8bd7baec1b00016977c1,3,Noise pollution,followup,2,2,,,,,,2022-01-26 20:38:52,3332
578e8bd7baec1b00016977c1,ma_choice_v3_pilot3,578e8bd7baec1b00016977c1,9,Quality of heat/AC system,followup,2,2,,,,,,2022-01-26 20:38:53,3333
578e8bd7baec1b00016977c1,ma_choice_v3_pilot3,578e8bd7baec1b00016977c1,10,Amount of traffic,followup,2,2,,,,,,2022-01-26 20:38:53,3334
578e8bd7baec1b00016977c1,ma_choice_v3_pilot3,578e8bd7baec1b00016977c1,5,Amount of natural light,followup,2,2,,,,,,2022-01-26 20:38:53,3335
578e8bd7baec1b00016977c1,ma_choice_v3_pilot3,578e8bd7baec1b00016977c1,4,Reputation of closest school,followup,2,2,,,,,,2022-01-26 20:38:53,3336
578e8bd7baec1b00016977c1,ma_choice_v3_pilot3,578e8bd7baec1b00016977c1,1,Proximity to cafes/restaurants,followup,2,2,,,,,,2022-01-26 20:38:53,3337
578e8bd7baec1b00016977c1,ma_choice_v3_pilot3,578e8bd7baec1b00016977c1,0,Proximity to parks,followup,2,2,,,,,,2022-01-26 20:38:53,3338
578e8bd7baec1b00016977c1,ma_choice_v3_pilot3,578e8bd7baec1b00016977c1,11,Size of home,followup,2,2,,,,,,2022-01-26 20:38:53,3339
578e8bd7baec1b00016977c1,ma_choice_v3_pilot3,578e8bd7baec1b00016977c1,8,Washer/dryer in unit,followup,2,2,,,,,,2022-01-26 20:38:53,3340
61035cb1ec7795c71631350c,ma_choice_v3_pilot3,61035cb1ec7795c71631350c,1,Proximity to cafes/restaurants,original,2,2,0,,,8519,,2022-01-26 20:39:07,3341
5c78dc27e8df4d00150c5252,ma_choice_v3_pilot3,5c78dc27e8df4d00150c5252,4,Reputation of closest school,original,2,2,7,,,5729,,2022-01-26 20:39:08,3342
61035cb1ec7795c71631350c,ma_choice_v3_pilot3,61035cb1ec7795c71631350c,9,Quality of heat/AC system,original,2,2,79,,,5734,,2022-01-26 20:39:12,3343
5c78dc27e8df4d00150c5252,ma_choice_v3_pilot3,5c78dc27e8df4d00150c5252,8,Washer/dryer in unit,original,2,2,76,,,4954,,2022-01-26 20:39:13,3344
61035cb1ec7795c71631350c,ma_choice_v3_pilot3,61035cb1ec7795c71631350c,10,Amount of traffic,original,2,2,12,,,3669,,2022-01-26 20:39:16,3345
5c78dc27e8df4d00150c5252,ma_choice_v3_pilot3,5c78dc27e8df4d00150c5252,10,Amount of traffic,original,2,2,4,,,5523,,2022-01-26 20:39:18,3346
61035cb1ec7795c71631350c,ma_choice_v3_pilot3,61035cb1ec7795c71631350c,0,Proximity to parks,original,2,2,25,,,3470,,2022-01-26 20:39:20,3347
61035cb1ec7795c71631350c,ma_choice_v3_pilot3,61035cb1ec7795c71631350c,11,Size of home,original,2,2,24,,,2929,,2022-01-26 20:39:23,3348
5c78dc27e8df4d00150c5252,ma_choice_v3_pilot3,5c78dc27e8df4d00150c5252,2,Proximity to public transportation,original,2,2,0,,,7998,,2022-01-26 20:39:27,3349
61035cb1ec7795c71631350c,ma_choice_v3_pilot3,61035cb1ec7795c71631350c,2,Proximity to public transportation,original,2,2,87,,,5129,,2022-01-26 20:39:28,3350
578e8bd7baec1b00016977c1,ma_choice_v3_pilot3,578e8bd7baec1b00016977c1,11,Size of home,direction,2,2,-1,600 square feet,1800 square feet,11690,,2022-01-26 20:39:32,3351
61035cb1ec7795c71631350c,ma_choice_v3_pilot3,61035cb1ec7795c71631350c,8,Washer/dryer in unit,original,2,2,62,,,5096,,2022-01-26 20:39:33,3352
61035cb1ec7795c71631350c,ma_choice_v3_pilot3,61035cb1ec7795c71631350c,4,Reputation of closest school,original,2,2,0,,,3224,,2022-01-26 20:39:36,3353
5c78dc27e8df4d00150c5252,ma_choice_v3_pilot3,5c78dc27e8df4d00150c5252,3,Noise pollution,original,2,2,19,,,10424,,2022-01-26 20:39:37,3354
578e8bd7baec1b00016977c1,ma_choice_v3_pilot3,578e8bd7baec1b00016977c1,10,Amount of traffic,direction,2,2,-1,A Lot,Very Little,7806,,2022-01-26 20:39:39,3355
61035cb1ec7795c71631350c,ma_choice_v3_pilot3,61035cb1ec7795c71631350c,6,Year building was built,original,2,2,37,,,3608,,2022-01-26 20:39:40,3356
5c78dc27e8df4d00150c5252,ma_choice_v3_pilot3,5c78dc27e8df4d00150c5252,7,Size of yard,original,2,2,19,,,4969,,2022-01-26 20:39:42,3357
61035cb1ec7795c71631350c,ma_choice_v3_pilot3,61035cb1ec7795c71631350c,5,Amount of natural light,original,2,2,7,,,5650,,2022-01-26 20:39:45,3358
5c78dc27e8df4d00150c5252,ma_choice_v3_pilot3,5c78dc27e8df4d00150c5252,5,Amount of natural light,original,2,2,11,,,4047,,2022-01-26 20:39:46,3359
61035cb1ec7795c71631350c,ma_choice_v3_pilot3,61035cb1ec7795c71631350c,3,Noise pollution,original,2,2,0,,,2714,,2022-01-26 20:39:48,3360
578e8bd7baec1b00016977c1,ma_choice_v3_pilot3,578e8bd7baec1b00016977c1,1,Proximity to cafes/restaurants,direction,2,2,-1,25 min away,10 min away,9135,,2022-01-26 20:39:49,3361
61035cb1ec7795c71631350c,ma_choice_v3_pilot3,61035cb1ec7795c71631350c,7,Size of yard,original,2,2,10,,,2920,,2022-01-26 20:39:51,3362
5c78dc27e8df4d00150c5252,ma_choice_v3_pilot3,5c78dc27e8df4d00150c5252,6,Year building was built,original,2,2,62,,,6146,,2022-01-26 20:39:52,3363
578e8bd7baec1b00016977c1,ma_choice_v3_pilot3,578e8bd7baec1b00016977c1,4,Reputation of closest school,direction,2,2,-1,Very Bad,Very Good,5957,,2022-01-26 20:39:54,3364
5c78dc27e8df4d00150c5252,ma_choice_v3_pilot3,5c78dc27e8df4d00150c5252,11,Size of home,original,2,2,63,,,3927,,2022-01-26 20:39:56,3365
578e8bd7baec1b00016977c1,ma_choice_v3_pilot3,578e8bd7baec1b00016977c1,7,Size of yard,direction,2,2,-1,0 square feet,500 square feet,7360,,2022-01-26 20:40:02,3366
5c78dc27e8df4d00150c5252,ma_choice_v3_pilot3,5c78dc27e8df4d00150c5252,1,Proximity to cafes/restaurants,original,2,2,0,,,6312,,2022-01-26 20:40:03,3367
5c78dc27e8df4d00150c5252,ma_choice_v3_pilot3,5c78dc27e8df4d00150c5252,0,Proximity to parks,original,2,2,0,,,3571,,2022-01-26 20:40:06,3368
578e8bd7baec1b00016977c1,ma_choice_v3_pilot3,578e8bd7baec1b00016977c1,6,Year building was built,direction,2,2,-1,1950,2020,4903,,2022-01-26 20:40:07,3369
5c78dc27e8df4d00150c5252,ma_choice_v3_pilot3,5c78dc27e8df4d00150c5252,9,Quality of heat/AC system,original,2,2,80,,,7340,,2022-01-26 20:40:14,3370
578e8bd7baec1b00016977c1,ma_choice_v3_pilot3,578e8bd7baec1b00016977c1,3,Noise pollution,direction,2,2,-1,Very High,Very Low,6966,,2022-01-26 20:40:14,3371
578e8bd7baec1b00016977c1,ma_choice_v3_pilot3,578e8bd7baec1b00016977c1,8,Washer/dryer in unit,direction,2,2,-1,No,Yes,3673,,2022-01-26 20:40:17,3372
61035cb1ec7795c71631350c,ma_choice_v3_pilot3,61035cb1ec7795c71631350c,3,Noise pollution,followup,2,2,,,,,,2022-01-26 20:40:20,3373
61035cb1ec7795c71631350c,ma_choice_v3_pilot3,61035cb1ec7795c71631350c,1,Proximity to cafes/restaurants,followup,2,2,,,,,,2022-01-26 20:40:20,3374
61035cb1ec7795c71631350c,ma_choice_v3_pilot3,61035cb1ec7795c71631350c,6,Year building was built,followup,2,2,,,,,,2022-01-26 20:40:20,3375
61035cb1ec7795c71631350c,ma_choice_v3_pilot3,61035cb1ec7795c71631350c,0,Proximity to parks,followup,2,2,,,,,,2022-01-26 20:40:20,3376
61035cb1ec7795c71631350c,ma_choice_v3_pilot3,61035cb1ec7795c71631350c,11,Size of home,followup,2,2,,,,,,2022-01-26 20:40:20,3377
61035cb1ec7795c71631350c,ma_choice_v3_pilot3,61035cb1ec7795c71631350c,4,Reputation of closest school,followup,2,2,,,,,,2022-01-26 20:40:20,3378
61035cb1ec7795c71631350c,ma_choice_v3_pilot3,61035cb1ec7795c71631350c,8,Washer/dryer in unit,followup,2,2,,,,,,2022-01-26 20:40:20,3379
61035cb1ec7795c71631350c,ma_choice_v3_pilot3,61035cb1ec7795c71631350c,7,Size of yard,followup,2,2,,,,,,2022-01-26 20:40:20,3380
61035cb1ec7795c71631350c,ma_choice_v3_pilot3,61035cb1ec7795c71631350c,9,Quality of heat/AC system,followup,2,2,,,,,,2022-01-26 20:40:20,3381
61035cb1ec7795c71631350c,ma_choice_v3_pilot3,61035cb1ec7795c71631350c,5,Amount of natural light,followup,2,2,,,,,,2022-01-26 20:40:20,3382
61035cb1ec7795c71631350c,ma_choice_v3_pilot3,61035cb1ec7795c71631350c,10,Amount of traffic,followup,2,2,,,,,,2022-01-26 20:40:21,3383
61035cb1ec7795c71631350c,ma_choice_v3_pilot3,61035cb1ec7795c71631350c,2,Proximity to public transportation,followup,2,2,,,,,,2022-01-26 20:40:21,3384
578e8bd7baec1b00016977c1,ma_choice_v3_pilot3,578e8bd7baec1b00016977c1,5,Amount of natural light,direction,2,2,-1,Very Little,A Moderate Amount,6321,,2022-01-26 20:40:24,3385
5c78dc27e8df4d00150c5252,ma_choice_v3_pilot3,5c78dc27e8df4d00150c5252,4,Reputation of closest school,followup,2,2,,,,,,2022-01-26 20:40:29,3386
5c78dc27e8df4d00150c5252,ma_choice_v3_pilot3,5c78dc27e8df4d00150c5252,7,Size of yard,followup,2,2,,,,,,2022-01-26 20:40:29,3387
5c78dc27e8df4d00150c5252,ma_choice_v3_pilot3,5c78dc27e8df4d00150c5252,11,Size of home,followup,2,2,,,,,,2022-01-26 20:40:29,3388
5c78dc27e8df4d00150c5252,ma_choice_v3_pilot3,5c78dc27e8df4d00150c5252,10,Amount of traffic,followup,2,2,,,,,,2022-01-26 20:40:29,3389
5c78dc27e8df4d00150c5252,ma_choice_v3_pilot3,5c78dc27e8df4d00150c5252,8,Washer/dryer in unit,followup,2,2,,,,,,2022-01-26 20:40:29,3390
5c78dc27e8df4d00150c5252,ma_choice_v3_pilot3,5c78dc27e8df4d00150c5252,2,Proximity to public transportation,followup,2,2,,,,,,2022-01-26 20:40:29,3391
5c78dc27e8df4d00150c5252,ma_choice_v3_pilot3,5c78dc27e8df4d00150c5252,5,Amount of natural light,followup,2,2,,,,,,2022-01-26 20:40:30,3392
5c78dc27e8df4d00150c5252,ma_choice_v3_pilot3,5c78dc27e8df4d00150c5252,0,Proximity to parks,followup,2,2,,,,,,2022-01-26 20:40:30,3393
5c78dc27e8df4d00150c5252,ma_choice_v3_pilot3,5c78dc27e8df4d00150c5252,9,Quality of heat/AC system,followup,2,2,,,,,,2022-01-26 20:40:30,3394
5c78dc27e8df4d00150c5252,ma_choice_v3_pilot3,5c78dc27e8df4d00150c5252,3,Noise pollution,followup,2,2,,,,,,2022-01-26 20:40:30,3395
5c78dc27e8df4d00150c5252,ma_choice_v3_pilot3,5c78dc27e8df4d00150c5252,6,Year building was built,followup,2,2,,,,,,2022-01-26 20:40:30,3396
5c78dc27e8df4d00150c5252,ma_choice_v3_pilot3,5c78dc27e8df4d00150c5252,1,Proximity to cafes/restaurants,followup,2,2,,,,,,2022-01-26 20:40:30,3397
578e8bd7baec1b00016977c1,ma_choice_v3_pilot3,578e8bd7baec1b00016977c1,9,Quality of heat/AC system,direction,2,2,-1,Very Bad,Very Good,9505,,2022-01-26 20:40:33,3398
578e8bd7baec1b00016977c1,ma_choice_v3_pilot3,578e8bd7baec1b00016977c1,0,Proximity to parks,direction,2,2,-1,25 min away,5 min away,5957,,2022-01-26 20:40:39,3399
578e8bd7baec1b00016977c1,ma_choice_v3_pilot3,578e8bd7baec1b00016977c1,2,Proximity to public transportation,direction,2,2,-1,20 min away,10 min away,13026,,2022-01-26 20:40:52,3400
61035cb1ec7795c71631350c,ma_choice_v3_pilot3,61035cb1ec7795c71631350c,10,Amount of traffic,direction,2,2,-1,A Lot,A Little,15061,,2022-01-26 20:41:18,3401
61035cb1ec7795c71631350c,ma_choice_v3_pilot3,61035cb1ec7795c71631350c,2,Proximity to public transportation,direction,2,2,-1,25 min away,5 min away,6728,,2022-01-26 20:41:25,3402
5c78dc27e8df4d00150c5252,ma_choice_v3_pilot3,5c78dc27e8df4d00150c5252,4,Reputation of closest school,direction,2,2,-1,Bad,Moderate,31421,,2022-01-26 20:41:29,3403
61035cb1ec7795c71631350c,ma_choice_v3_pilot3,61035cb1ec7795c71631350c,0,Proximity to parks,direction,2,2,-1,25 min away,10 min away,9987,,2022-01-26 20:41:35,3404
61035cb1ec7795c71631350c,ma_choice_v3_pilot3,61035cb1ec7795c71631350c,8,Washer/dryer in unit,direction,2,2,-1,No,Yes,4264,,2022-01-26 20:41:39,3405
5c78dc27e8df4d00150c5252,ma_choice_v3_pilot3,5c78dc27e8df4d00150c5252,6,Year building was built,direction,2,2,-1,1950,2020,12942,,2022-01-26 20:41:41,3406
5c78dc27e8df4d00150c5252,ma_choice_v3_pilot3,5c78dc27e8df4d00150c5252,8,Washer/dryer in unit,direction,2,2,-1,No,Yes,7320,,2022-01-26 20:41:49,3407
603862f99e00971c55fe0874,ma_choice_v3_pilot3,603862f99e00971c55fe0874,1,Proximity to cafes/restaurants,original,2,2,0,,,3712,,2022-01-26 20:41:54,3408
61035cb1ec7795c71631350c,ma_choice_v3_pilot3,61035cb1ec7795c71631350c,11,Size of home,direction,2,2,-1,600 square feet,1200 square feet,19828,,2022-01-26 20:41:59,3409
5c78dc27e8df4d00150c5252,ma_choice_v3_pilot3,5c78dc27e8df4d00150c5252,9,Quality of heat/AC system,direction,2,2,-1,Bad,Very Good,11327,,2022-01-26 20:42:00,3410
603862f99e00971c55fe0874,ma_choice_v3_pilot3,603862f99e00971c55fe0874,3,Noise pollution,original,2,2,0,,,7600,,2022-01-26 20:42:02,3411
603862f99e00971c55fe0874,ma_choice_v3_pilot3,603862f99e00971c55fe0874,5,Amount of natural light,original,2,2,0,,,2674,,2022-01-26 20:42:04,3412
61035cb1ec7795c71631350c,ma_choice_v3_pilot3,61035cb1ec7795c71631350c,4,Reputation of closest school,direction,2,2,-1,Very Bad,Good,7761,,2022-01-26 20:42:06,3413
603862f99e00971c55fe0874,ma_choice_v3_pilot3,603862f99e00971c55fe0874,2,Proximity to public transportation,original,2,2,79,,,4523,,2022-01-26 20:42:09,3414
5c78dc27e8df4d00150c5252,ma_choice_v3_pilot3,5c78dc27e8df4d00150c5252,11,Size of home,direction,2,2,-1,600 square feet,1800 square feet,8958,,2022-01-26 20:42:09,3415
603862f99e00971c55fe0874,ma_choice_v3_pilot3,603862f99e00971c55fe0874,11,Size of home,original,2,2,57,,,3366,,2022-01-26 20:42:12,3416
603862f99e00971c55fe0874,ma_choice_v3_pilot3,603862f99e00971c55fe0874,8,Washer/dryer in unit,original,2,2,89,,,3013,,2022-01-26 20:42:15,3417
603862f99e00971c55fe0874,ma_choice_v3_pilot3,603862f99e00971c55fe0874,6,Year building was built,original,2,2,0,,,2280,,2022-01-26 20:42:17,3418
5c78dc27e8df4d00150c5252,ma_choice_v3_pilot3,5c78dc27e8df4d00150c5252,1,Proximity to cafes/restaurants,direction,2,2,-1,25 min away,5 min away,8286,,2022-01-26 20:42:17,3419
61035cb1ec7795c71631350c,ma_choice_v3_pilot3,61035cb1ec7795c71631350c,5,Amount of natural light,direction,2,2,-1,Very Little,A Lot,13149,,2022-01-26 20:42:20,3420
603862f99e00971c55fe0874,ma_choice_v3_pilot3,603862f99e00971c55fe0874,7,Size of yard,original,2,2,0,,,2334,,2022-01-26 20:42:20,3421
603862f99e00971c55fe0874,ma_choice_v3_pilot3,603862f99e00971c55fe0874,9,Quality of heat/AC system,original,2,2,10,,,3433,,2022-01-26 20:42:23,3422
603862f99e00971c55fe0874,ma_choice_v3_pilot3,603862f99e00971c55fe0874,10,Amount of traffic,original,2,2,0,,,2369,,2022-01-26 20:42:26,3423
603862f99e00971c55fe0874,ma_choice_v3_pilot3,603862f99e00971c55fe0874,4,Reputation of closest school,original,2,2,36,,,2867,,2022-01-26 20:42:28,3424
61035cb1ec7795c71631350c,ma_choice_v3_pilot3,61035cb1ec7795c71631350c,7,Size of yard,direction,2,2,-1,0 square feet,500 square feet,9636,,2022-01-26 20:42:29,3425
5c78dc27e8df4d00150c5252,ma_choice_v3_pilot3,5c78dc27e8df4d00150c5252,10,Amount of traffic,direction,2,2,-1,A Lot,Very Little,11902,,2022-01-26 20:42:29,3426
603862f99e00971c55fe0874,ma_choice_v3_pilot3,603862f99e00971c55fe0874,0,Proximity to parks,original,2,2,0,,,2232,,2022-01-26 20:42:31,3427
5c78dc27e8df4d00150c5252,ma_choice_v3_pilot3,5c78dc27e8df4d00150c5252,2,Proximity to public transportation,direction,2,2,-1,25 min away,5 min away,8388,,2022-01-26 20:42:38,3428
61035cb1ec7795c71631350c,ma_choice_v3_pilot3,61035cb1ec7795c71631350c,3,Noise pollution,direction,2,2,-1,Very High,Low,10429,,2022-01-26 20:42:40,3429
603862f99e00971c55fe0874,ma_choice_v3_pilot3,603862f99e00971c55fe0874,3,Noise pollution,followup,2,2,,,,,,2022-01-26 20:42:44,3430
603862f99e00971c55fe0874,ma_choice_v3_pilot3,603862f99e00971c55fe0874,8,Washer/dryer in unit,followup,2,2,,,,,,2022-01-26 20:42:44,3431
603862f99e00971c55fe0874,ma_choice_v3_pilot3,603862f99e00971c55fe0874,0,Proximity to parks,followup,2,2,,,,,,2022-01-26 20:42:44,3432
603862f99e00971c55fe0874,ma_choice_v3_pilot3,603862f99e00971c55fe0874,11,Size of home,followup,2,2,,,,,,2022-01-26 20:42:44,3433
603862f99e00971c55fe0874,ma_choice_v3_pilot3,603862f99e00971c55fe0874,2,Proximity to public transportation,followup,2,2,,,,,,2022-01-26 20:42:44,3434
603862f99e00971c55fe0874,ma_choice_v3_pilot3,603862f99e00971c55fe0874,10,Amount of traffic,followup,2,2,,,,,,2022-01-26 20:42:44,3435
603862f99e00971c55fe0874,ma_choice_v3_pilot3,603862f99e00971c55fe0874,7,Size of yard,followup,2,2,,,,,,2022-01-26 20:42:44,3436
603862f99e00971c55fe0874,ma_choice_v3_pilot3,603862f99e00971c55fe0874,5,Amount of natural light,followup,2,2,,,,,,2022-01-26 20:42:44,3437
603862f99e00971c55fe0874,ma_choice_v3_pilot3,603862f99e00971c55fe0874,9,Quality of heat/AC system,followup,2,2,,,,,,2022-01-26 20:42:44,3438
603862f99e00971c55fe0874,ma_choice_v3_pilot3,603862f99e00971c55fe0874,4,Reputation of closest school,followup,2,2,,,,,,2022-01-26 20:42:44,3439
603862f99e00971c55fe0874,ma_choice_v3_pilot3,603862f99e00971c55fe0874,6,Year building was built,followup,2,2,,,,,,2022-01-26 20:42:44,3440
603862f99e00971c55fe0874,ma_choice_v3_pilot3,603862f99e00971c55fe0874,1,Proximity to cafes/restaurants,followup,2,2,,,,,,2022-01-26 20:42:44,3441
5c78dc27e8df4d00150c5252,ma_choice_v3_pilot3,5c78dc27e8df4d00150c5252,3,Noise pollution,direction,2,2,-1,Very High,Low,11501,,2022-01-26 20:42:49,3442
61035cb1ec7795c71631350c,ma_choice_v3_pilot3,61035cb1ec7795c71631350c,1,Proximity to cafes/restaurants,direction,2,2,-1,25 min away,15 min away,12635,,2022-01-26 20:42:54,3443
5c78dc27e8df4d00150c5252,ma_choice_v3_pilot3,5c78dc27e8df4d00150c5252,7,Size of yard,direction,2,2,-1,0 square feet,1000 square feet,7352,,2022-01-26 20:42:57,3444
61035cb1ec7795c71631350c,ma_choice_v3_pilot3,61035cb1ec7795c71631350c,9,Quality of heat/AC system,direction,2,2,-1,Very Bad,Very Good,6967,,2022-01-26 20:42:59,3445
61035cb1ec7795c71631350c,ma_choice_v3_pilot3,61035cb1ec7795c71631350c,6,Year building was built,direction,2,2,-1,1950,2020,6723,,2022-01-26 20:43:06,3446
5c78dc27e8df4d00150c5252,ma_choice_v3_pilot3,5c78dc27e8df4d00150c5252,5,Amount of natural light,direction,2,2,-1,Very Little,A Moderate Amount,10077,,2022-01-26 20:43:07,3447
5c78dc27e8df4d00150c5252,ma_choice_v3_pilot3,5c78dc27e8df4d00150c5252,0,Proximity to parks,direction,2,2,-1,25 min away,10 min away,7438,,2022-01-26 20:43:14,3448
603862f99e00971c55fe0874,ma_choice_v3_pilot3,603862f99e00971c55fe0874,0,Proximity to parks,direction,2,2,-1,5 min away,25 min away,7326,,2022-01-26 20:43:18,3449
603862f99e00971c55fe0874,ma_choice_v3_pilot3,603862f99e00971c55fe0874,10,Amount of traffic,direction,2,2,-1,A Lot,Very Little,7381,,2022-01-26 20:43:25,3450
603862f99e00971c55fe0874,ma_choice_v3_pilot3,603862f99e00971c55fe0874,2,Proximity to public transportation,direction,2,2,-1,25 min away,5 min away,7166,,2022-01-26 20:43:32,3451
603862f99e00971c55fe0874,ma_choice_v3_pilot3,603862f99e00971c55fe0874,11,Size of home,direction,2,2,-1,600 square feet,1800 square feet,5984,,2022-01-26 20:43:38,3452
603862f99e00971c55fe0874,ma_choice_v3_pilot3,603862f99e00971c55fe0874,8,Washer/dryer in unit,direction,2,2,-1,No,Yes,10036,,2022-01-26 20:43:48,3453
5f8b5ce2f8638828a551fed4,ma_choice_v3_pilot3,5f8b5ce2f8638828a551fed4,9,Quality of heat/AC system,original,2,2,100,,,8111,,2022-01-26 20:43:50,3454
5f8b5ce2f8638828a551fed4,ma_choice_v3_pilot3,5f8b5ce2f8638828a551fed4,3,Noise pollution,original,2,2,0,,,3472,,2022-01-26 20:43:53,3455
603862f99e00971c55fe0874,ma_choice_v3_pilot3,603862f99e00971c55fe0874,9,Quality of heat/AC system,direction,2,2,-1,Very Bad,Very Good,6611,,2022-01-26 20:43:55,3456
5f8b5ce2f8638828a551fed4,ma_choice_v3_pilot3,5f8b5ce2f8638828a551fed4,1,Proximity to cafes/restaurants,original,2,2,0,,,2658,,2022-01-26 20:43:56,3457
5f8b5ce2f8638828a551fed4,ma_choice_v3_pilot3,5f8b5ce2f8638828a551fed4,5,Amount of natural light,original,2,2,0,,,2539,,2022-01-26 20:43:58,3458
5f8b5ce2f8638828a551fed4,ma_choice_v3_pilot3,5f8b5ce2f8638828a551fed4,0,Proximity to parks,original,2,2,49,,,2814,,2022-01-26 20:44:01,3459
603862f99e00971c55fe0874,ma_choice_v3_pilot3,603862f99e00971c55fe0874,5,Amount of natural light,direction,2,2,-1,Very Little,A Moderate Amount,7091,,2022-01-26 20:44:02,3460
5f8b5ce2f8638828a551fed4,ma_choice_v3_pilot3,5f8b5ce2f8638828a551fed4,7,Size of yard,original,2,2,51,,,2313,,2022-01-26 20:44:04,3461
5f8b5ce2f8638828a551fed4,ma_choice_v3_pilot3,5f8b5ce2f8638828a551fed4,11,Size of home,original,2,2,0,,,2517,,2022-01-26 20:44:06,3462
603862f99e00971c55fe0874,ma_choice_v3_pilot3,603862f99e00971c55fe0874,1,Proximity to cafes/restaurants,direction,2,2,-1,25 min away,5 min away,6683,,2022-01-26 20:44:09,3463
5f8b5ce2f8638828a551fed4,ma_choice_v3_pilot3,5f8b5ce2f8638828a551fed4,4,Reputation of closest school,original,2,2,75,,,5479,,2022-01-26 20:44:12,3464
5f8b5ce2f8638828a551fed4,ma_choice_v3_pilot3,5f8b5ce2f8638828a551fed4,8,Washer/dryer in unit,original,2,2,100,,,2058,,2022-01-26 20:44:14,3465
603862f99e00971c55fe0874,ma_choice_v3_pilot3,603862f99e00971c55fe0874,3,Noise pollution,direction,2,2,-1,Very High,Very Low,5365,,2022-01-26 20:44:14,3466
5f8b5ce2f8638828a551fed4,ma_choice_v3_pilot3,5f8b5ce2f8638828a551fed4,2,Proximity to public transportation,original,2,2,0,,,2652,,2022-01-26 20:44:16,3467
5f8b5ce2f8638828a551fed4,ma_choice_v3_pilot3,5f8b5ce2f8638828a551fed4,10,Amount of traffic,original,2,2,0,,,2414,,2022-01-26 20:44:19,3468
603862f99e00971c55fe0874,ma_choice_v3_pilot3,603862f99e00971c55fe0874,7,Size of yard,direction,2,2,-1,0 square feet,500 square feet,5796,,2022-01-26 20:44:20,3469
5f8b5ce2f8638828a551fed4,ma_choice_v3_pilot3,5f8b5ce2f8638828a551fed4,6,Year building was built,original,2,2,0,,,2098,,2022-01-26 20:44:21,3470
603862f99e00971c55fe0874,ma_choice_v3_pilot3,603862f99e00971c55fe0874,4,Reputation of closest school,direction,2,2,-1,Very Bad,Very Good,4168,,2022-01-26 20:44:24,3471
5f8b5ce2f8638828a551fed4,ma_choice_v3_pilot3,5f8b5ce2f8638828a551fed4,6,Year building was built,followup,2,2,,,,,,2022-01-26 20:44:34,3472
5f8b5ce2f8638828a551fed4,ma_choice_v3_pilot3,5f8b5ce2f8638828a551fed4,4,Reputation of closest school,followup,2,2,,,,,,2022-01-26 20:44:34,3473
5f8b5ce2f8638828a551fed4,ma_choice_v3_pilot3,5f8b5ce2f8638828a551fed4,2,Proximity to public transportation,followup,2,2,,,,,,2022-01-26 20:44:34,3474
5f8b5ce2f8638828a551fed4,ma_choice_v3_pilot3,5f8b5ce2f8638828a551fed4,0,Proximity to parks,followup,2,2,,,,,,2022-01-26 20:44:34,3475
5f8b5ce2f8638828a551fed4,ma_choice_v3_pilot3,5f8b5ce2f8638828a551fed4,9,Quality of heat/AC system,followup,2,2,,,,,,2022-01-26 20:44:34,3476
5f8b5ce2f8638828a551fed4,ma_choice_v3_pilot3,5f8b5ce2f8638828a551fed4,10,Amount of traffic,followup,2,2,,,,,,2022-01-26 20:44:34,3477
5f8b5ce2f8638828a551fed4,ma_choice_v3_pilot3,5f8b5ce2f8638828a551fed4,5,Amount of natural light,followup,2,2,,,,,,2022-01-26 20:44:34,3478
5f8b5ce2f8638828a551fed4,ma_choice_v3_pilot3,5f8b5ce2f8638828a551fed4,3,Noise pollution,followup,2,2,,,,,,2022-01-26 20:44:34,3479
5f8b5ce2f8638828a551fed4,ma_choice_v3_pilot3,5f8b5ce2f8638828a551fed4,11,Size of home,followup,2,2,,,,,,2022-01-26 20:44:34,3480
5f8b5ce2f8638828a551fed4,ma_choice_v3_pilot3,5f8b5ce2f8638828a551fed4,7,Size of yard,followup,2,2,,,,,,2022-01-26 20:44:34,3481
5f8b5ce2f8638828a551fed4,ma_choice_v3_pilot3,5f8b5ce2f8638828a551fed4,8,Washer/dryer in unit,followup,2,2,,,,,,2022-01-26 20:44:34,3482
5f8b5ce2f8638828a551fed4,ma_choice_v3_pilot3,5f8b5ce2f8638828a551fed4,1,Proximity to cafes/restaurants,followup,2,2,,,,,,2022-01-26 20:44:34,3483
603862f99e00971c55fe0874,ma_choice_v3_pilot3,603862f99e00971c55fe0874,6,Year building was built,direction,2,2,-1,1950,1985,19135,,2022-01-26 20:44:43,3484
5f8b5ce2f8638828a551fed4,ma_choice_v3_pilot3,5f8b5ce2f8638828a551fed4,9,Quality of heat/AC system,direction,2,2,-1,Very Bad,Very Good,11741,,2022-01-26 20:45:09,3485
5f8b5ce2f8638828a551fed4,ma_choice_v3_pilot3,5f8b5ce2f8638828a551fed4,4,Reputation of closest school,direction,2,2,-1,Very Bad,Very Good,3970,,2022-01-26 20:45:13,3486
5f8b5ce2f8638828a551fed4,ma_choice_v3_pilot3,5f8b5ce2f8638828a551fed4,1,Proximity to cafes/restaurants,direction,2,2,-1,25 min away,5 min away,14026,,2022-01-26 20:45:27,3487
5f8b5ce2f8638828a551fed4,ma_choice_v3_pilot3,5f8b5ce2f8638828a551fed4,2,Proximity to public transportation,direction,2,2,-1,5 min away,10 min away,9934,,2022-01-26 20:45:37,3488
5f8b5ce2f8638828a551fed4,ma_choice_v3_pilot3,5f8b5ce2f8638828a551fed4,7,Size of yard,direction,2,2,-1,0 square feet,1000 square feet,11343,,2022-01-26 20:45:48,3489
5f8b5ce2f8638828a551fed4,ma_choice_v3_pilot3,5f8b5ce2f8638828a551fed4,3,Noise pollution,direction,2,2,-1,Very High,Very Low,6655,,2022-01-26 20:45:55,3490
5f8b5ce2f8638828a551fed4,ma_choice_v3_pilot3,5f8b5ce2f8638828a551fed4,0,Proximity to parks,direction,2,2,-1,25 min away,5 min away,5839,,2022-01-26 20:46:00,3491
5f8b5ce2f8638828a551fed4,ma_choice_v3_pilot3,5f8b5ce2f8638828a551fed4,11,Size of home,direction,2,2,-1,600 square feet,1800 square feet,4676,,2022-01-26 20:46:05,3492
5f8b5ce2f8638828a551fed4,ma_choice_v3_pilot3,5f8b5ce2f8638828a551fed4,10,Amount of traffic,direction,2,2,-1,A Lot,Very Little,7695,,2022-01-26 20:46:13,3493
5f8b5ce2f8638828a551fed4,ma_choice_v3_pilot3,5f8b5ce2f8638828a551fed4,8,Washer/dryer in unit,direction,2,2,-1,No,Yes,9755,,2022-01-26 20:46:23,3494
5f8b5ce2f8638828a551fed4,ma_choice_v3_pilot3,5f8b5ce2f8638828a551fed4,5,Amount of natural light,direction,2,2,-1,Very Little,A Lot,4039,,2022-01-26 20:46:27,3495
5f8b5ce2f8638828a551fed4,ma_choice_v3_pilot3,5f8b5ce2f8638828a551fed4,6,Year building was built,direction,2,2,-1,1950,2020,5349,,2022-01-26 20:46:32,3496
5deb3ffdf375c625fa83bac7,ma_choice_v3_pilot3,5deb3ffdf375c625fa83bac7,0,Noise pollution,original,,1,1,,,3910,,2022-01-26 21:12:00,3497
5deb3ffdf375c625fa83bac7,ma_choice_v3_pilot3,5deb3ffdf375c625fa83bac7,8,Washer/dryer in unit,followup,,1,0,,,3742,,2022-01-26 21:12:37,3498
5deb3ffdf375c625fa83bac7,ma_choice_v3_pilot3,5deb3ffdf375c625fa83bac7,9,Quality of heat/AC system,followup,,1,0,,,4390,,2022-01-26 21:12:42,3499
5deb3ffdf375c625fa83bac7,ma_choice_v3_pilot3,5deb3ffdf375c625fa83bac7,10,Amount of traffic,followup,,1,0,,,2017,,2022-01-26 21:12:44,3500
5deb3ffdf375c625fa83bac7,ma_choice_v3_pilot3,5deb3ffdf375c625fa83bac7,6,Year building was built,followup,,1,0,,,2142,,2022-01-26 21:12:46,3501
5deb3ffdf375c625fa83bac7,ma_choice_v3_pilot3,5deb3ffdf375c625fa83bac7,2,Proximity to public transportation,followup,,1,0,,,3125,,2022-01-26 21:12:49,3502
5deb3ffdf375c625fa83bac7,ma_choice_v3_pilot3,5deb3ffdf375c625fa83bac7,0,Proximity to parks,followup,,1,0,,,2243,,2022-01-26 21:12:51,3503
5deb3ffdf375c625fa83bac7,ma_choice_v3_pilot3,5deb3ffdf375c625fa83bac7,11,Size of home,followup,,1,0,,,3337,,2022-01-26 21:12:54,3504
5deb3ffdf375c625fa83bac7,ma_choice_v3_pilot3,5deb3ffdf375c625fa83bac7,1,Proximity to cafes/restaurants,followup,,1,0,,,2012,,2022-01-26 21:12:56,3505
5deb3ffdf375c625fa83bac7,ma_choice_v3_pilot3,5deb3ffdf375c625fa83bac7,7,Size of yard,followup,,1,0,,,2067,,2022-01-26 21:12:58,3506
5deb3ffdf375c625fa83bac7,ma_choice_v3_pilot3,5deb3ffdf375c625fa83bac7,4,Reputation of closest school,followup,,1,0,,,2427,,2022-01-26 21:13:01,3507
5deb3ffdf375c625fa83bac7,ma_choice_v3_pilot3,5deb3ffdf375c625fa83bac7,3,Noise pollution,followup,,1,100,,,3691,,2022-01-26 21:13:05,3508
5deb3ffdf375c625fa83bac7,ma_choice_v3_pilot3,5deb3ffdf375c625fa83bac7,5,Amount of natural light,followup,,1,0,,,2364,,2022-01-26 21:13:07,3509
5deb3ffdf375c625fa83bac7,ma_choice_v3_pilot3,5deb3ffdf375c625fa83bac7,2,Proximity to public transportation,direction,,1,-1,25 min away,5 min away,20138,,2022-01-26 21:13:54,3510
5deb3ffdf375c625fa83bac7,ma_choice_v3_pilot3,5deb3ffdf375c625fa83bac7,10,Amount of traffic,direction,,1,-1,Very Little,Very Little,3964,,2022-01-26 21:13:58,3511
5deb3ffdf375c625fa83bac7,ma_choice_v3_pilot3,5deb3ffdf375c625fa83bac7,0,Proximity to parks,direction,,1,-1,25 min away,5 min away,8410,,2022-01-26 21:14:07,3512
5deb3ffdf375c625fa83bac7,ma_choice_v3_pilot3,5deb3ffdf375c625fa83bac7,5,Amount of natural light,direction,,1,-1,Very Little,Very Little,2793,,2022-01-26 21:14:10,3513
5deb3ffdf375c625fa83bac7,ma_choice_v3_pilot3,5deb3ffdf375c625fa83bac7,9,Quality of heat/AC system,direction,,1,-1,Very Bad,Good,9715,,2022-01-26 21:14:19,3514
5deb3ffdf375c625fa83bac7,ma_choice_v3_pilot3,5deb3ffdf375c625fa83bac7,1,Proximity to cafes/restaurants,direction,,1,-1,25 min away,10 min away,11159,,2022-01-26 21:14:31,3515
5deb3ffdf375c625fa83bac7,ma_choice_v3_pilot3,5deb3ffdf375c625fa83bac7,6,Year building was built,direction,,1,-1,1950,1985,8521,,2022-01-26 21:14:39,3516
5deb3ffdf375c625fa83bac7,ma_choice_v3_pilot3,5deb3ffdf375c625fa83bac7,7,Size of yard,direction,,1,-1,0 square feet,1000 square feet,9895,,2022-01-26 21:14:49,3517
5deb3ffdf375c625fa83bac7,ma_choice_v3_pilot3,5deb3ffdf375c625fa83bac7,3,Noise pollution,direction,,1,-1,Very High,Very Low,11577,,2022-01-26 21:15:01,3518
5deb3ffdf375c625fa83bac7,ma_choice_v3_pilot3,5deb3ffdf375c625fa83bac7,8,Washer/dryer in unit,direction,,1,-1,No,Yes,17754,,2022-01-26 21:15:18,3519
5deb3ffdf375c625fa83bac7,ma_choice_v3_pilot3,5deb3ffdf375c625fa83bac7,11,Size of home,direction,,1,-1,600 square feet,1800 square feet,6375,,2022-01-26 21:15:25,3520
5deb3ffdf375c625fa83bac7,ma_choice_v3_pilot3,5deb3ffdf375c625fa83bac7,4,Reputation of closest school,direction,,1,-1,Very Bad,Very Good,6473,,2022-01-26 21:15:31,3521
558a035bfdf99b2d75651378,ma_choice_v3_pilot3,558a035bfdf99b2d75651378,2,Proximity to public transportation,original,2,2,0,,,5879,,2022-01-26 21:29:09,3522
558a035bfdf99b2d75651378,ma_choice_v3_pilot3,558a035bfdf99b2d75651378,9,Quality of heat/AC system,original,2,2,49,,,5853,,2022-01-26 21:29:15,3523
558a035bfdf99b2d75651378,ma_choice_v3_pilot3,558a035bfdf99b2d75651378,6,Year building was built,original,2,2,25,,,7597,,2022-01-26 21:29:23,3524
558a035bfdf99b2d75651378,ma_choice_v3_pilot3,558a035bfdf99b2d75651378,7,Size of yard,original,2,2,81,,,8948,,2022-01-26 21:29:32,3525
558a035bfdf99b2d75651378,ma_choice_v3_pilot3,558a035bfdf99b2d75651378,4,Reputation of closest school,original,2,2,44,,,6301,,2022-01-26 21:29:38,3526
558a035bfdf99b2d75651378,ma_choice_v3_pilot3,558a035bfdf99b2d75651378,5,Amount of natural light,original,2,2,0,,,3581,,2022-01-26 21:29:42,3527
558a035bfdf99b2d75651378,ma_choice_v3_pilot3,558a035bfdf99b2d75651378,0,Proximity to parks,original,2,2,0,,,3149,,2022-01-26 21:29:45,3528
558a035bfdf99b2d75651378,ma_choice_v3_pilot3,558a035bfdf99b2d75651378,10,Amount of traffic,original,2,2,16,,,6429,,2022-01-26 21:29:51,3529
558a035bfdf99b2d75651378,ma_choice_v3_pilot3,558a035bfdf99b2d75651378,1,Proximity to cafes/restaurants,original,2,2,0,,,3197,,2022-01-26 21:29:54,3530
558a035bfdf99b2d75651378,ma_choice_v3_pilot3,558a035bfdf99b2d75651378,3,Noise pollution,original,2,2,0,,,2965,,2022-01-26 21:29:57,3531
558a035bfdf99b2d75651378,ma_choice_v3_pilot3,558a035bfdf99b2d75651378,11,Size of home,original,2,2,83,,,11909,,2022-01-26 21:30:09,3532
558a035bfdf99b2d75651378,ma_choice_v3_pilot3,558a035bfdf99b2d75651378,8,Washer/dryer in unit,original,2,2,93,,,6005,,2022-01-26 21:30:15,3533
5ad57f5c27c301000101d9c5,ma_choice_v3_pilot3,5ad57f5c27c301000101d9c5,2,Proximity to public transportation,original,2,2,0,,,3339,,2022-01-26 21:30:33,3534
558a035bfdf99b2d75651378,ma_choice_v3_pilot3,558a035bfdf99b2d75651378,9,Quality of heat/AC system,followup,2,2,,,,,,2022-01-26 21:30:37,3535
558a035bfdf99b2d75651378,ma_choice_v3_pilot3,558a035bfdf99b2d75651378,2,Proximity to public transportation,followup,2,2,,,,,,2022-01-26 21:30:37,3536
558a035bfdf99b2d75651378,ma_choice_v3_pilot3,558a035bfdf99b2d75651378,4,Reputation of closest school,followup,2,2,,,,,,2022-01-26 21:30:37,3537
558a035bfdf99b2d75651378,ma_choice_v3_pilot3,558a035bfdf99b2d75651378,5,Amount of natural light,followup,2,2,,,,,,2022-01-26 21:30:37,3538
558a035bfdf99b2d75651378,ma_choice_v3_pilot3,558a035bfdf99b2d75651378,0,Proximity to parks,followup,2,2,,,,,,2022-01-26 21:30:37,3539
558a035bfdf99b2d75651378,ma_choice_v3_pilot3,558a035bfdf99b2d75651378,1,Proximity to cafes/restaurants,followup,2,2,,,,,,2022-01-26 21:30:37,3540
558a035bfdf99b2d75651378,ma_choice_v3_pilot3,558a035bfdf99b2d75651378,7,Size of yard,followup,2,2,,,,,,2022-01-26 21:30:37,3541
558a035bfdf99b2d75651378,ma_choice_v3_pilot3,558a035bfdf99b2d75651378,3,Noise pollution,followup,2,2,,,,,,2022-01-26 21:30:37,3542
558a035bfdf99b2d75651378,ma_choice_v3_pilot3,558a035bfdf99b2d75651378,11,Size of home,followup,2,2,,,,,,2022-01-26 21:30:37,3543
558a035bfdf99b2d75651378,ma_choice_v3_pilot3,558a035bfdf99b2d75651378,8,Washer/dryer in unit,followup,2,2,,,,,,2022-01-26 21:30:37,3544
558a035bfdf99b2d75651378,ma_choice_v3_pilot3,558a035bfdf99b2d75651378,10,Amount of traffic,followup,2,2,,,,,,2022-01-26 21:30:37,3545
558a035bfdf99b2d75651378,ma_choice_v3_pilot3,558a035bfdf99b2d75651378,6,Year building was built,followup,2,2,,,,,,2022-01-26 21:30:37,3546
5ad57f5c27c301000101d9c5,ma_choice_v3_pilot3,5ad57f5c27c301000101d9c5,8,Washer/dryer in unit,original,2,2,100,,,10415,,2022-01-26 21:30:44,3547
5ad57f5c27c301000101d9c5,ma_choice_v3_pilot3,5ad57f5c27c301000101d9c5,7,Size of yard,original,2,2,0,,,5031,,2022-01-26 21:30:49,3548
5ad57f5c27c301000101d9c5,ma_choice_v3_pilot3,5ad57f5c27c301000101d9c5,1,Proximity to cafes/restaurants,original,2,2,0,,,2656,,2022-01-26 21:30:51,3549
5ad57f5c27c301000101d9c5,ma_choice_v3_pilot3,5ad57f5c27c301000101d9c5,6,Year building was built,original,2,2,88,,,5608,,2022-01-26 21:30:57,3550
5ad57f5c27c301000101d9c5,ma_choice_v3_pilot3,5ad57f5c27c301000101d9c5,0,Proximity to parks,original,2,2,13,,,4847,,2022-01-26 21:31:02,3551
5ad57f5c27c301000101d9c5,ma_choice_v3_pilot3,5ad57f5c27c301000101d9c5,4,Reputation of closest school,original,2,2,100,,,4354,,2022-01-26 21:31:06,3552
5ad57f5c27c301000101d9c5,ma_choice_v3_pilot3,5ad57f5c27c301000101d9c5,5,Amount of natural light,original,2,2,0,,,3700,,2022-01-26 21:31:10,3553
5ad57f5c27c301000101d9c5,ma_choice_v3_pilot3,5ad57f5c27c301000101d9c5,9,Quality of heat/AC system,original,2,2,88,,,5303,,2022-01-26 21:31:15,3554
5ad57f5c27c301000101d9c5,ma_choice_v3_pilot3,5ad57f5c27c301000101d9c5,11,Size of home,original,2,2,87,,,2722,,2022-01-26 21:31:18,3555
5ad57f5c27c301000101d9c5,ma_choice_v3_pilot3,5ad57f5c27c301000101d9c5,10,Amount of traffic,original,2,2,11,,,2251,,2022-01-26 21:31:20,3556
5ad57f5c27c301000101d9c5,ma_choice_v3_pilot3,5ad57f5c27c301000101d9c5,3,Noise pollution,original,2,2,0,,,2156,,2022-01-26 21:31:22,3557
5ad57f5c27c301000101d9c5,ma_choice_v3_pilot3,5ad57f5c27c301000101d9c5,2,Proximity to public transportation,followup,2,2,,,,,,2022-01-26 21:31:41,3558
5ad57f5c27c301000101d9c5,ma_choice_v3_pilot3,5ad57f5c27c301000101d9c5,11,Size of home,followup,2,2,,,,,,2022-01-26 21:31:41,3559
5ad57f5c27c301000101d9c5,ma_choice_v3_pilot3,5ad57f5c27c301000101d9c5,3,Noise pollution,followup,2,2,,,,,,2022-01-26 21:31:41,3560
5ad57f5c27c301000101d9c5,ma_choice_v3_pilot3,5ad57f5c27c301000101d9c5,9,Quality of heat/AC system,followup,2,2,,,,,,2022-01-26 21:31:41,3561
5ad57f5c27c301000101d9c5,ma_choice_v3_pilot3,5ad57f5c27c301000101d9c5,4,Reputation of closest school,followup,2,2,,,,,,2022-01-26 21:31:41,3562
5ad57f5c27c301000101d9c5,ma_choice_v3_pilot3,5ad57f5c27c301000101d9c5,8,Washer/dryer in unit,followup,2,2,,,,,,2022-01-26 21:31:41,3563
5ad57f5c27c301000101d9c5,ma_choice_v3_pilot3,5ad57f5c27c301000101d9c5,1,Proximity to cafes/restaurants,followup,2,2,,,,,,2022-01-26 21:31:41,3564
5ad57f5c27c301000101d9c5,ma_choice_v3_pilot3,5ad57f5c27c301000101d9c5,7,Size of yard,followup,2,2,,,,,,2022-01-26 21:31:41,3565
5ad57f5c27c301000101d9c5,ma_choice_v3_pilot3,5ad57f5c27c301000101d9c5,5,Amount of natural light,followup,2,2,,,,,,2022-01-26 21:31:41,3566
5ad57f5c27c301000101d9c5,ma_choice_v3_pilot3,5ad57f5c27c301000101d9c5,6,Year building was built,followup,2,2,,,,,,2022-01-26 21:31:41,3567
5ad57f5c27c301000101d9c5,ma_choice_v3_pilot3,5ad57f5c27c301000101d9c5,10,Amount of traffic,followup,2,2,,,,,,2022-01-26 21:31:41,3568
5ad57f5c27c301000101d9c5,ma_choice_v3_pilot3,5ad57f5c27c301000101d9c5,0,Proximity to parks,followup,2,2,,,,,,2022-01-26 21:31:41,3569
558a035bfdf99b2d75651378,ma_choice_v3_pilot3,558a035bfdf99b2d75651378,4,Reputation of closest school,direction,2,2,-1,Very Bad,Very Good,18423,,2022-01-26 21:31:42,3570
558a035bfdf99b2d75651378,ma_choice_v3_pilot3,558a035bfdf99b2d75651378,8,Washer/dryer in unit,direction,2,2,-1,No,Yes,11884,,2022-01-26 21:31:54,3571
558a035bfdf99b2d75651378,ma_choice_v3_pilot3,558a035bfdf99b2d75651378,6,Year building was built,direction,2,2,-1,1950,2020,8245,,2022-01-26 21:32:02,3572
558a035bfdf99b2d75651378,ma_choice_v3_pilot3,558a035bfdf99b2d75651378,3,Noise pollution,direction,2,2,-1,Very High,Very Low,11124,,2022-01-26 21:32:13,3573
5ad57f5c27c301000101d9c5,ma_choice_v3_pilot3,5ad57f5c27c301000101d9c5,11,Size of home,direction,2,2,-1,600 square feet,1800 square feet,7861,,2022-01-26 21:32:13,3574
5ad57f5c27c301000101d9c5,ma_choice_v3_pilot3,5ad57f5c27c301000101d9c5,5,Amount of natural light,direction,2,2,-1,Very Little,A Moderate Amount,7385,,2022-01-26 21:32:21,3575
