subject,version,assignmentId,trial,attribute,rating,least_preferred,most_preferred,type,rt,rt2,full_or_lex,signed_weights,original_or_followup,stamp,id
60edaf90d8aa718a66510d04,ma_choice_v4_pilot3,60edaf90d8aa718a66510d04,8,Quality of kitchen,3,,,wad_att_rating,5224,,,,,2022-06-02 12:23:38,13324
60edaf90d8aa718a66510d04,ma_choice_v4_pilot3,60edaf90d8aa718a66510d04,4,Reputation of closest school,4,,,wad_att_rating,2211,,,,,2022-06-02 12:23:40,13325
60edaf90d8aa718a66510d04,ma_choice_v4_pilot3,60edaf90d8aa718a66510d04,5,Amount of natural light,3,,,wad_att_rating,2461,,,,,2022-06-02 12:23:43,13326
60edaf90d8aa718a66510d04,ma_choice_v4_pilot3,60edaf90d8aa718a66510d04,0,Closeness to parks,5,,,wad_att_rating,1813,,,,,2022-06-02 12:23:45,13327
60edaf90d8aa718a66510d04,ma_choice_v4_pilot3,60edaf90d8aa718a66510d04,10,Amount of traffic,4,,,wad_att_rating,1788,,,,,2022-06-02 12:23:47,13328
60edaf90d8aa718a66510d04,ma_choice_v4_pilot3,60edaf90d8aa718a66510d04,1,Closeness to cafes/restaurants,4,,,wad_att_rating,2321,,,,,2022-06-02 12:23:49,13329
60edaf90d8aa718a66510d04,ma_choice_v4_pilot3,60edaf90d8aa718a66510d04,3,Noise pollution,3,,,wad_att_rating,1957,,,,,2022-06-02 12:23:51,13330
60edaf90d8aa718a66510d04,ma_choice_v4_pilot3,60edaf90d8aa718a66510d04,6,Year building was built,100,,,wad_att_rating,2950,,,,,2022-06-02 12:23:54,13331
60edaf90d8aa718a66510d04,ma_choice_v4_pilot3,60edaf90d8aa718a66510d04,11,Size of home,2,,,wad_att_rating,2358,,,,,2022-06-02 12:23:56,13332
60edaf90d8aa718a66510d04,ma_choice_v4_pilot3,60edaf90d8aa718a66510d04,2,Closeness to public transportation,2,,,wad_att_rating,2609,,,,,2022-06-02 12:23:59,13333
60edaf90d8aa718a66510d04,ma_choice_v4_pilot3,60edaf90d8aa718a66510d04,7,Size of yard,3,,,wad_att_rating,2336,,,,,2022-06-02 12:24:01,13334
60edaf90d8aa718a66510d04,ma_choice_v4_pilot3,60edaf90d8aa718a66510d04,9,Quality of heat/AC system,2,,,wad_att_rating,2257,,,,,2022-06-02 12:24:03,13335
60edaf90d8aa718a66510d04,ma_choice_v4_pilot3,60edaf90d8aa718a66510d04,0,Year building was built,1,,,ew_att_rating,14552,,,,,2022-06-02 12:24:28,13336
60edaf90d8aa718a66510d04,ma_choice_v4_pilot3,60edaf90d8aa718a66510d04,0,Year building was built,1,,,lex_att_rating,7954,,,,,2022-06-02 12:24:42,13337
60edaf90d8aa718a66510d04,ma_choice_v4_pilot3,60edaf90d8aa718a66510d04,5,Amount of natural light,-1,A Lot,A Lot,direction,8677,,,,,2022-06-02 12:26:03,13338
60edaf90d8aa718a66510d04,ma_choice_v4_pilot3,60edaf90d8aa718a66510d04,10,Amount of traffic,-1,A Lot,A Lot,direction,1705,,,,,2022-06-02 12:26:14,13339
60edaf90d8aa718a66510d04,ma_choice_v4_pilot3,60edaf90d8aa718a66510d04,8,Quality of kitchen,-1,Very Good,Very Good,direction,1595,,,,,2022-06-02 12:26:20,13340
60edaf90d8aa718a66510d04,ma_choice_v4_pilot3,60edaf90d8aa718a66510d04,3,Noise pollution,-1,Very High,Very High,direction,1609,,,,,2022-06-02 12:26:23,13341
60edaf90d8aa718a66510d04,ma_choice_v4_pilot3,60edaf90d8aa718a66510d04,11,Size of home,-1,1800 square feet,1800 square feet,direction,1840,,,,,2022-06-02 12:26:31,13342
60edaf90d8aa718a66510d04,ma_choice_v4_pilot3,60edaf90d8aa718a66510d04,7,Size of yard,-1,600 square feet,600 square feet,direction,1561,,,,,2022-06-02 12:26:35,13343
60edaf90d8aa718a66510d04,ma_choice_v4_pilot3,60edaf90d8aa718a66510d04,4,Reputation of closest school,-1,Very Good,Very Good,direction,1401,,,,,2022-06-02 12:26:39,13344
60edaf90d8aa718a66510d04,ma_choice_v4_pilot3,60edaf90d8aa718a66510d04,6,Year building was built,-1,2020,1950,direction,1546,,,,,2022-06-02 12:26:46,13345
60edaf90d8aa718a66510d04,ma_choice_v4_pilot3,60edaf90d8aa718a66510d04,9,Quality of heat/AC system,-1,Very Good,Very Good,direction,1463,,,,,2022-06-02 12:26:52,13346
60edaf90d8aa718a66510d04,ma_choice_v4_pilot3,60edaf90d8aa718a66510d04,1,Closeness to cafes/restaurants,-1,30 min away,30 min away,direction,1708,,,,,2022-06-02 12:26:55,13347
60edaf90d8aa718a66510d04,ma_choice_v4_pilot3,60edaf90d8aa718a66510d04,0,Closeness to parks,-1,30 min away,30 min away,direction,1595,,,,,2022-06-02 12:26:59,13348
60edaf90d8aa718a66510d04,ma_choice_v4_pilot3,60edaf90d8aa718a66510d04,2,Closeness to public transportation,-1,30 min away,30 min away,direction,1703,,,,,2022-06-02 12:27:03,13349
61519fa687183cd2698e0f10,ma_choice_v4_pilot3,61519fa687183cd2698e0f10,0,Quality of heat/AC system,1,,,lex_att_rating,4590,,,,,2022-06-02 12:41:47,13350
61519fa687183cd2698e0f10,ma_choice_v4_pilot3,61519fa687183cd2698e0f10,0,Noise pollution,1,,,ew_att_rating,13389,,,,,2022-06-02 12:42:11,13351
61519fa687183cd2698e0f10,ma_choice_v4_pilot3,61519fa687183cd2698e0f10,0,Amount of traffic,1,,,ew_att_rating,13389,,,,,2022-06-02 12:42:11,13352
61519fa687183cd2698e0f10,ma_choice_v4_pilot3,61519fa687183cd2698e0f10,0,Quality of heat/AC system,1,,,ew_att_rating,13389,,,,,2022-06-02 12:42:11,13353
61519fa687183cd2698e0f10,ma_choice_v4_pilot3,61519fa687183cd2698e0f10,0,Closeness to parks,0,,,wad_att_rating,8614,,,,,2022-06-02 12:42:30,13354
61519fa687183cd2698e0f10,ma_choice_v4_pilot3,61519fa687183cd2698e0f10,6,Year building was built,0,,,wad_att_rating,4502,,,,,2022-06-02 12:42:35,13355
61519fa687183cd2698e0f10,ma_choice_v4_pilot3,61519fa687183cd2698e0f10,1,Closeness to cafes/restaurants,0,,,wad_att_rating,4454,,,,,2022-06-02 12:42:39,13356
61519fa687183cd2698e0f10,ma_choice_v4_pilot3,61519fa687183cd2698e0f10,10,Amount of traffic,87,,,wad_att_rating,5790,,,,,2022-06-02 12:42:45,13357
61519fa687183cd2698e0f10,ma_choice_v4_pilot3,61519fa687183cd2698e0f10,4,Reputation of closest school,0,,,wad_att_rating,3222,,,,,2022-06-02 12:42:48,13358
61519fa687183cd2698e0f10,ma_choice_v4_pilot3,61519fa687183cd2698e0f10,3,Noise pollution,74,,,wad_att_rating,5862,,,,,2022-06-02 12:42:54,13359
61519fa687183cd2698e0f10,ma_choice_v4_pilot3,61519fa687183cd2698e0f10,5,Amount of natural light,48,,,wad_att_rating,7135,,,,,2022-06-02 12:43:01,13360
61519fa687183cd2698e0f10,ma_choice_v4_pilot3,61519fa687183cd2698e0f10,9,Quality of heat/AC system,100,,,wad_att_rating,3646,,,,,2022-06-02 12:43:05,13361
61519fa687183cd2698e0f10,ma_choice_v4_pilot3,61519fa687183cd2698e0f10,8,Quality of kitchen,25,,,wad_att_rating,3718,,,,,2022-06-02 12:43:09,13362
61519fa687183cd2698e0f10,ma_choice_v4_pilot3,61519fa687183cd2698e0f10,7,Size of yard,0,,,wad_att_rating,3223,,,,,2022-06-02 12:43:12,13363
61519fa687183cd2698e0f10,ma_choice_v4_pilot3,61519fa687183cd2698e0f10,2,Closeness to public transportation,0,,,wad_att_rating,2998,,,,,2022-06-02 12:43:15,13364
61519fa687183cd2698e0f10,ma_choice_v4_pilot3,61519fa687183cd2698e0f10,11,Size of home,12,,,wad_att_rating,3183,,,,,2022-06-02 12:43:18,13365
5d88dcb723dfcc00151fd043,ma_choice_v4_pilot3,5d88dcb723dfcc00151fd043,2,Closeness to public transportation,0,,,wad_att_rating,7233,,,,,2022-06-02 12:46:48,13366
5d88dcb723dfcc00151fd043,ma_choice_v4_pilot3,5d88dcb723dfcc00151fd043,4,Reputation of closest school,0,,,wad_att_rating,3392,,,,,2022-06-02 12:46:52,13367
5d88dcb723dfcc00151fd043,ma_choice_v4_pilot3,5d88dcb723dfcc00151fd043,0,Closeness to parks,0,,,wad_att_rating,6716,,,,,2022-06-02 12:46:59,13368
5d88dcb723dfcc00151fd043,ma_choice_v4_pilot3,5d88dcb723dfcc00151fd043,11,Size of home,25,,,wad_att_rating,4231,,,,,2022-06-02 12:47:03,13369
5d88dcb723dfcc00151fd043,ma_choice_v4_pilot3,5d88dcb723dfcc00151fd043,1,Closeness to cafes/restaurants,0,,,wad_att_rating,3592,,,,,2022-06-02 12:47:06,13370
5d88dcb723dfcc00151fd043,ma_choice_v4_pilot3,5d88dcb723dfcc00151fd043,10,Amount of traffic,74,,,wad_att_rating,5925,,,,,2022-06-02 12:47:12,13371
5d88dcb723dfcc00151fd043,ma_choice_v4_pilot3,5d88dcb723dfcc00151fd043,5,Amount of natural light,50,,,wad_att_rating,4072,,,,,2022-06-02 12:47:16,13372
5d88dcb723dfcc00151fd043,ma_choice_v4_pilot3,5d88dcb723dfcc00151fd043,6,Year building was built,0,,,wad_att_rating,4223,,,,,2022-06-02 12:47:21,13373
5d88dcb723dfcc00151fd043,ma_choice_v4_pilot3,5d88dcb723dfcc00151fd043,8,Quality of kitchen,75,,,wad_att_rating,3721,,,,,2022-06-02 12:47:24,13374
5d88dcb723dfcc00151fd043,ma_choice_v4_pilot3,5d88dcb723dfcc00151fd043,7,Size of yard,49,,,wad_att_rating,3353,,,,,2022-06-02 12:47:28,13375
5d88dcb723dfcc00151fd043,ma_choice_v4_pilot3,5d88dcb723dfcc00151fd043,9,Quality of heat/AC system,25,,,wad_att_rating,3192,,,,,2022-06-02 12:47:31,13376
5d88dcb723dfcc00151fd043,ma_choice_v4_pilot3,5d88dcb723dfcc00151fd043,3,Noise pollution,87,,,wad_att_rating,5646,,,,,2022-06-02 12:47:37,13377
5d88dcb723dfcc00151fd043,ma_choice_v4_pilot3,5d88dcb723dfcc00151fd043,0,Amount of traffic,1,,,ew_att_rating,19240,,,,,2022-06-02 12:48:21,13378
5d88dcb723dfcc00151fd043,ma_choice_v4_pilot3,5d88dcb723dfcc00151fd043,0,Amount of natural light,1,,,ew_att_rating,19240,,,,,2022-06-02 12:48:21,13379
5d88dcb723dfcc00151fd043,ma_choice_v4_pilot3,5d88dcb723dfcc00151fd043,0,Noise pollution,1,,,ew_att_rating,19240,,,,,2022-06-02 12:48:21,13380
5d88dcb723dfcc00151fd043,ma_choice_v4_pilot3,5d88dcb723dfcc00151fd043,0,Quality of kitchen,1,,,ew_att_rating,19240,,,,,2022-06-02 12:48:21,13381
5d88dcb723dfcc00151fd043,ma_choice_v4_pilot3,5d88dcb723dfcc00151fd043,0,Quality of kitchen,1,,,lex_att_rating,6940,,,,,2022-06-02 12:48:38,13382
61519fa687183cd2698e0f10,ma_choice_v4_pilot3,61519fa687183cd2698e0f10,7,Size of yard,-1,600 square feet,0 square feet,direction,3573,,,,,2022-06-02 12:55:13,13383
61519fa687183cd2698e0f10,ma_choice_v4_pilot3,61519fa687183cd2698e0f10,3,Noise pollution,-1,Very Low,Very High,direction,2116,,,,,2022-06-02 12:55:20,13384
61519fa687183cd2698e0f10,ma_choice_v4_pilot3,61519fa687183cd2698e0f10,4,Reputation of closest school,-1,Very Good,Very Bad,direction,2268,,,,,2022-06-02 12:55:28,13385
61519fa687183cd2698e0f10,ma_choice_v4_pilot3,61519fa687183cd2698e0f10,5,Amount of natural light,-1,A Lot,Very Little,direction,2708,,,,,2022-06-02 12:55:41,13386
61519fa687183cd2698e0f10,ma_choice_v4_pilot3,61519fa687183cd2698e0f10,10,Amount of traffic,-1,Very Little,A Lot,direction,1901,,,,,2022-06-02 12:55:48,13387
5fb7dd473afbb1033b491811,ma_choice_v4_pilot3,5fb7dd473afbb1033b491811,0,Year building was built,1,,,lex_att_rating,14416,,,,,2022-06-02 12:55:48,13388
61519fa687183cd2698e0f10,ma_choice_v4_pilot3,61519fa687183cd2698e0f10,11,Size of home,-1,1800 square feet,600 square feet,direction,1957,,,,,2022-06-02 12:55:53,13389
61519fa687183cd2698e0f10,ma_choice_v4_pilot3,61519fa687183cd2698e0f10,9,Quality of heat/AC system,-1,Very Good,Very Bad,direction,2125,,,,,2022-06-02 12:55:59,13390
61519fa687183cd2698e0f10,ma_choice_v4_pilot3,61519fa687183cd2698e0f10,1,Closeness to cafes/restaurants,-1,10 min away,30 min away,direction,2045,,,,,2022-06-02 12:56:08,13391
61519fa687183cd2698e0f10,ma_choice_v4_pilot3,61519fa687183cd2698e0f10,2,Closeness to public transportation,-1,25 min away,10 min away,direction,1741,,,,,2022-06-02 12:56:22,13392
5fb7dd473afbb1033b491811,ma_choice_v4_pilot3,5fb7dd473afbb1033b491811,6,Year building was built,87,,,wad_att_rating,25436,,,,,2022-06-02 12:56:24,13393
5fb7dd473afbb1033b491811,ma_choice_v4_pilot3,5fb7dd473afbb1033b491811,7,Size of yard,0,,,wad_att_rating,4526,,,,,2022-06-02 12:56:28,13394
61519fa687183cd2698e0f10,ma_choice_v4_pilot3,61519fa687183cd2698e0f10,8,Quality of kitchen,-1,Very Good,Very Bad,direction,2157,,,,,2022-06-02 12:56:35,13395
5fb7dd473afbb1033b491811,ma_choice_v4_pilot3,5fb7dd473afbb1033b491811,5,Amount of natural light,0,,,wad_att_rating,13355,,,,,2022-06-02 12:56:42,13396
5fb7dd473afbb1033b491811,ma_choice_v4_pilot3,5fb7dd473afbb1033b491811,1,Closeness to cafes/restaurants,0,,,wad_att_rating,4310,,,,,2022-06-02 12:56:46,13397
61519fa687183cd2698e0f10,ma_choice_v4_pilot3,61519fa687183cd2698e0f10,6,Year building was built,-1,1985,1950,direction,7221,,,,,2022-06-02 12:56:48,13398
61519fa687183cd2698e0f10,ma_choice_v4_pilot3,61519fa687183cd2698e0f10,0,Closeness to parks,-1,20 min away,10 min away,direction,1837,,,,,2022-06-02 12:56:55,13399
5fb7dd473afbb1033b491811,ma_choice_v4_pilot3,5fb7dd473afbb1033b491811,9,Quality of heat/AC system,50,,,wad_att_rating,10557,,,,,2022-06-02 12:56:57,13400
5fb7dd473afbb1033b491811,ma_choice_v4_pilot3,5fb7dd473afbb1033b491811,2,Closeness to public transportation,0,,,wad_att_rating,4061,,,,,2022-06-02 12:57:01,13401
5fb7dd473afbb1033b491811,ma_choice_v4_pilot3,5fb7dd473afbb1033b491811,4,Reputation of closest school,0,,,wad_att_rating,3250,,,,,2022-06-02 12:57:04,13402
5fb7dd473afbb1033b491811,ma_choice_v4_pilot3,5fb7dd473afbb1033b491811,0,Closeness to parks,0,,,wad_att_rating,3759,,,,,2022-06-02 12:57:08,13403
5fb7dd473afbb1033b491811,ma_choice_v4_pilot3,5fb7dd473afbb1033b491811,10,Amount of traffic,0,,,wad_att_rating,3615,,,,,2022-06-02 12:57:11,13404
5fb7dd473afbb1033b491811,ma_choice_v4_pilot3,5fb7dd473afbb1033b491811,11,Size of home,75,,,wad_att_rating,7508,,,,,2022-06-02 12:57:19,13405
5fb7dd473afbb1033b491811,ma_choice_v4_pilot3,5fb7dd473afbb1033b491811,3,Noise pollution,0,,,wad_att_rating,3119,,,,,2022-06-02 12:57:22,13406
5fb7dd473afbb1033b491811,ma_choice_v4_pilot3,5fb7dd473afbb1033b491811,8,Quality of kitchen,13,,,wad_att_rating,4550,,,,,2022-06-02 12:57:26,13407
5fb7dd473afbb1033b491811,ma_choice_v4_pilot3,5fb7dd473afbb1033b491811,0,Quality of kitchen,1,,,ew_att_rating,68156,,,,,2022-06-02 12:58:48,13408
5fb7dd473afbb1033b491811,ma_choice_v4_pilot3,5fb7dd473afbb1033b491811,0,Size of home,1,,,ew_att_rating,68156,,,,,2022-06-02 12:58:48,13409
5fb7dd473afbb1033b491811,ma_choice_v4_pilot3,5fb7dd473afbb1033b491811,0,Quality of heat/AC system,1,,,ew_att_rating,68156,,,,,2022-06-02 12:58:48,13410
5fb7dd473afbb1033b491811,ma_choice_v4_pilot3,5fb7dd473afbb1033b491811,0,Year building was built,1,,,ew_att_rating,68156,,,,,2022-06-02 12:58:48,13411
60f39f67a5c2c9e50ce470ee,ma_choice_v4_pilot3,60f39f67a5c2c9e50ce470ee,3,Noise pollution,71,,,wad_att_rating,5681,,,,,2022-06-02 12:59:10,13412
60f39f67a5c2c9e50ce470ee,ma_choice_v4_pilot3,60f39f67a5c2c9e50ce470ee,8,Quality of kitchen,74,,,wad_att_rating,2860,,,,,2022-06-02 12:59:13,13413
60f39f67a5c2c9e50ce470ee,ma_choice_v4_pilot3,60f39f67a5c2c9e50ce470ee,11,Size of home,59,,,wad_att_rating,3214,,,,,2022-06-02 12:59:16,13414
60f39f67a5c2c9e50ce470ee,ma_choice_v4_pilot3,60f39f67a5c2c9e50ce470ee,2,Closeness to public transportation,34,,,wad_att_rating,2859,,,,,2022-06-02 12:59:19,13415
60f39f67a5c2c9e50ce470ee,ma_choice_v4_pilot3,60f39f67a5c2c9e50ce470ee,1,Closeness to cafes/restaurants,23,,,wad_att_rating,2446,,,,,2022-06-02 12:59:22,13416
60f39f67a5c2c9e50ce470ee,ma_choice_v4_pilot3,60f39f67a5c2c9e50ce470ee,9,Quality of heat/AC system,73,,,wad_att_rating,2277,,,,,2022-06-02 12:59:24,13417
60f39f67a5c2c9e50ce470ee,ma_choice_v4_pilot3,60f39f67a5c2c9e50ce470ee,4,Reputation of closest school,49,,,wad_att_rating,2745,,,,,2022-06-02 12:59:27,13418
60f39f67a5c2c9e50ce470ee,ma_choice_v4_pilot3,60f39f67a5c2c9e50ce470ee,10,Amount of traffic,84,,,wad_att_rating,4412,,,,,2022-06-02 12:59:31,13419
60f39f67a5c2c9e50ce470ee,ma_choice_v4_pilot3,60f39f67a5c2c9e50ce470ee,7,Size of yard,84,,,wad_att_rating,2344,,,,,2022-06-02 12:59:33,13420
60f39f67a5c2c9e50ce470ee,ma_choice_v4_pilot3,60f39f67a5c2c9e50ce470ee,5,Amount of natural light,85,,,wad_att_rating,2128,,,,,2022-06-02 12:59:35,13421
60f39f67a5c2c9e50ce470ee,ma_choice_v4_pilot3,60f39f67a5c2c9e50ce470ee,0,Closeness to parks,45,,,wad_att_rating,2765,,,,,2022-06-02 12:59:38,13422
60f39f67a5c2c9e50ce470ee,ma_choice_v4_pilot3,60f39f67a5c2c9e50ce470ee,6,Year building was built,40,,,wad_att_rating,3208,,,,,2022-06-02 12:59:41,13423
5d9373b0e04970001ab482da,ma_choice_v4_pilot3,5d9373b0e04970001ab482da,0,Amount of natural light,1,,,lex_att_rating,4406,,,,,2022-06-02 12:59:57,13424
60f39f67a5c2c9e50ce470ee,ma_choice_v4_pilot3,60f39f67a5c2c9e50ce470ee,0,Reputation of closest school,1,,,ew_att_rating,15299,,,,,2022-06-02 13:00:00,13425
60f39f67a5c2c9e50ce470ee,ma_choice_v4_pilot3,60f39f67a5c2c9e50ce470ee,0,Noise pollution,1,,,ew_att_rating,15299,,,,,2022-06-02 13:00:00,13426
60f39f67a5c2c9e50ce470ee,ma_choice_v4_pilot3,60f39f67a5c2c9e50ce470ee,0,Amount of natural light,1,,,ew_att_rating,15299,,,,,2022-06-02 13:00:00,13427
60f39f67a5c2c9e50ce470ee,ma_choice_v4_pilot3,60f39f67a5c2c9e50ce470ee,0,Quality of kitchen,1,,,ew_att_rating,15299,,,,,2022-06-02 13:00:00,13428
60f39f67a5c2c9e50ce470ee,ma_choice_v4_pilot3,60f39f67a5c2c9e50ce470ee,0,Amount of traffic,1,,,ew_att_rating,15299,,,,,2022-06-02 13:00:00,13429
60f39f67a5c2c9e50ce470ee,ma_choice_v4_pilot3,60f39f67a5c2c9e50ce470ee,0,Quality of heat/AC system,1,,,ew_att_rating,15299,,,,,2022-06-02 13:00:00,13430
60f39f67a5c2c9e50ce470ee,ma_choice_v4_pilot3,60f39f67a5c2c9e50ce470ee,0,Year building was built,1,,,ew_att_rating,15299,,,,,2022-06-02 13:00:00,13431
60f39f67a5c2c9e50ce470ee,ma_choice_v4_pilot3,60f39f67a5c2c9e50ce470ee,0,Size of yard,1,,,ew_att_rating,15299,,,,,2022-06-02 13:00:00,13432
60f39f67a5c2c9e50ce470ee,ma_choice_v4_pilot3,60f39f67a5c2c9e50ce470ee,0,Size of home,1,,,ew_att_rating,15299,,,,,2022-06-02 13:00:00,13433
60f39f67a5c2c9e50ce470ee,ma_choice_v4_pilot3,60f39f67a5c2c9e50ce470ee,0,Size of home,1,,,lex_att_rating,8945,,,,,2022-06-02 13:00:13,13434
5d9373b0e04970001ab482da,ma_choice_v4_pilot3,5d9373b0e04970001ab482da,8,Quality of kitchen,11,,,wad_att_rating,7152,,,,,2022-06-02 13:00:13,13435
5d9373b0e04970001ab482da,ma_choice_v4_pilot3,5d9373b0e04970001ab482da,0,Closeness to parks,24,,,wad_att_rating,8652,,,,,2022-06-02 13:00:22,13436
5d9373b0e04970001ab482da,ma_choice_v4_pilot3,5d9373b0e04970001ab482da,11,Size of home,24,,,wad_att_rating,3788,,,,,2022-06-02 13:00:26,13437
5d9373b0e04970001ab482da,ma_choice_v4_pilot3,5d9373b0e04970001ab482da,6,Year building was built,0,,,wad_att_rating,3702,,,,,2022-06-02 13:00:29,13438
5d9373b0e04970001ab482da,ma_choice_v4_pilot3,5d9373b0e04970001ab482da,10,Amount of traffic,0,,,wad_att_rating,3556,,,,,2022-06-02 13:00:33,13439
5d9373b0e04970001ab482da,ma_choice_v4_pilot3,5d9373b0e04970001ab482da,1,Closeness to cafes/restaurants,23,,,wad_att_rating,4067,,,,,2022-06-02 13:00:37,13440
5d9373b0e04970001ab482da,ma_choice_v4_pilot3,5d9373b0e04970001ab482da,7,Size of yard,0,,,wad_att_rating,2970,,,,,2022-06-02 13:00:40,13441
5d9373b0e04970001ab482da,ma_choice_v4_pilot3,5d9373b0e04970001ab482da,5,Amount of natural light,88,,,wad_att_rating,7438,,,,,2022-06-02 13:00:47,13442
5d88dcb723dfcc00151fd043,ma_choice_v4_pilot3,5d88dcb723dfcc00151fd043,1,Closeness to cafes/restaurants,-1,20 min away,30 min away,direction,3832,,,,,2022-06-02 13:00:49,13443
5d9373b0e04970001ab482da,ma_choice_v4_pilot3,5d9373b0e04970001ab482da,4,Reputation of closest school,0,,,wad_att_rating,3226,,,,,2022-06-02 13:00:51,13444
5d9373b0e04970001ab482da,ma_choice_v4_pilot3,5d9373b0e04970001ab482da,2,Closeness to public transportation,37,,,wad_att_rating,3270,,,,,2022-06-02 13:00:54,13445
5d9373b0e04970001ab482da,ma_choice_v4_pilot3,5d9373b0e04970001ab482da,9,Quality of heat/AC system,11,,,wad_att_rating,3357,,,,,2022-06-02 13:00:57,13446
5d88dcb723dfcc00151fd043,ma_choice_v4_pilot3,5d88dcb723dfcc00151fd043,2,Closeness to public transportation,-1,10 min away,30 min away,direction,2874,,,,,2022-06-02 13:01:00,13447
5d9373b0e04970001ab482da,ma_choice_v4_pilot3,5d9373b0e04970001ab482da,3,Noise pollution,37,,,wad_att_rating,3378,,,,,2022-06-02 13:01:01,13448
5d88dcb723dfcc00151fd043,ma_choice_v4_pilot3,5d88dcb723dfcc00151fd043,11,Size of home,-1,1800 square feet,600 square feet,direction,2602,,,,,2022-06-02 13:01:13,13449
5d88dcb723dfcc00151fd043,ma_choice_v4_pilot3,5d88dcb723dfcc00151fd043,8,Quality of kitchen,-1,Good,Very Bad,direction,2075,,,,,2022-06-02 13:01:19,13450
5d9373b0e04970001ab482da,ma_choice_v4_pilot3,5d9373b0e04970001ab482da,0,Amount of natural light,1,,,ew_att_rating,6789,,,,,2022-06-02 13:01:23,13451
5d9373b0e04970001ab482da,ma_choice_v4_pilot3,5d9373b0e04970001ab482da,0,Noise pollution,1,,,ew_att_rating,6789,,,,,2022-06-02 13:01:23,13452
5d88dcb723dfcc00151fd043,ma_choice_v4_pilot3,5d88dcb723dfcc00151fd043,3,Noise pollution,-1,Very Low,Very High,direction,8476,,,,,2022-06-02 13:01:32,13453
5d88dcb723dfcc00151fd043,ma_choice_v4_pilot3,5d88dcb723dfcc00151fd043,7,Size of yard,-1,300 square feet,0 square feet,direction,1931,,,,,2022-06-02 13:01:38,13454
5d88dcb723dfcc00151fd043,ma_choice_v4_pilot3,5d88dcb723dfcc00151fd043,6,Year building was built,-1,2020,1950,direction,1811,,,,,2022-06-02 13:01:45,13455
60f39f67a5c2c9e50ce470ee,ma_choice_v4_pilot3,60f39f67a5c2c9e50ce470ee,11,Size of home,-1,1200 square feet,600 square feet,direction,3426,,,,,2022-06-02 13:01:55,13456
5d88dcb723dfcc00151fd043,ma_choice_v4_pilot3,5d88dcb723dfcc00151fd043,0,Closeness to parks,-1,15 min away,30 min away,direction,4223,,,,,2022-06-02 13:01:56,13457
60f39f67a5c2c9e50ce470ee,ma_choice_v4_pilot3,60f39f67a5c2c9e50ce470ee,9,Quality of heat/AC system,-1,Good,Very Bad,direction,3392,,,,,2022-06-02 13:02:02,13458
5d88dcb723dfcc00151fd043,ma_choice_v4_pilot3,5d88dcb723dfcc00151fd043,9,Quality of heat/AC system,-1,Good,Bad,direction,3656,,,,,2022-06-02 13:02:03,13459
5fb7dd473afbb1033b491811,ma_choice_v4_pilot3,5fb7dd473afbb1033b491811,7,Size of yard,-1,600 square feet,0 square feet,direction,4805,,,,,2022-06-02 13:02:08,13460
60f39f67a5c2c9e50ce470ee,ma_choice_v4_pilot3,60f39f67a5c2c9e50ce470ee,8,Quality of kitchen,-1,Very Good,Bad,direction,2893,,,,,2022-06-02 13:02:09,13461
5d88dcb723dfcc00151fd043,ma_choice_v4_pilot3,5d88dcb723dfcc00151fd043,5,Amount of natural light,-1,A Lot,Very Little,direction,2131,,,,,2022-06-02 13:02:09,13462
5d88dcb723dfcc00151fd043,ma_choice_v4_pilot3,5d88dcb723dfcc00151fd043,4,Reputation of closest school,-1,Good,Very Bad,direction,1811,,,,,2022-06-02 13:02:15,13463
60f39f67a5c2c9e50ce470ee,ma_choice_v4_pilot3,60f39f67a5c2c9e50ce470ee,0,Closeness to parks,-1,15 min away,30 min away,direction,2324,,,,,2022-06-02 13:02:15,13464
5fb7dd473afbb1033b491811,ma_choice_v4_pilot3,5fb7dd473afbb1033b491811,1,Closeness to cafes/restaurants,-1,15 min away,30 min away,direction,3114,,,,,2022-06-02 13:02:19,13465
60f39f67a5c2c9e50ce470ee,ma_choice_v4_pilot3,60f39f67a5c2c9e50ce470ee,10,Amount of traffic,-1,Very Little,A Lot,direction,2075,,,,,2022-06-02 13:02:22,13466
5d88dcb723dfcc00151fd043,ma_choice_v4_pilot3,5d88dcb723dfcc00151fd043,10,Amount of traffic,-1,Very Little,A Lot,direction,2299,,,,,2022-06-02 13:02:23,13467
5fb7dd473afbb1033b491811,ma_choice_v4_pilot3,5fb7dd473afbb1033b491811,4,Reputation of closest school,-1,Very Good,Very Bad,direction,2302,,,,,2022-06-02 13:02:26,13468
60f39f67a5c2c9e50ce470ee,ma_choice_v4_pilot3,60f39f67a5c2c9e50ce470ee,4,Reputation of closest school,-1,Good,Very Bad,direction,2110,,,,,2022-06-02 13:02:30,13469
5fb7dd473afbb1033b491811,ma_choice_v4_pilot3,5fb7dd473afbb1033b491811,0,Closeness to parks,-1,10 min away,30 min away,direction,2411,,,,,2022-06-02 13:02:34,13470
60f39f67a5c2c9e50ce470ee,ma_choice_v4_pilot3,60f39f67a5c2c9e50ce470ee,6,Year building was built,-1,1985,1950,direction,5274,,,,,2022-06-02 13:02:38,13471
60f39f67a5c2c9e50ce470ee,ma_choice_v4_pilot3,60f39f67a5c2c9e50ce470ee,1,Closeness to cafes/restaurants,-1,15 min away,25 min away,direction,2944,,,,,2022-06-02 13:02:45,13472
5fb7dd473afbb1033b491811,ma_choice_v4_pilot3,5fb7dd473afbb1033b491811,2,Closeness to public transportation,-1,20 min away,10 min away,direction,3332,,,,,2022-06-02 13:02:45,13473
60f39f67a5c2c9e50ce470ee,ma_choice_v4_pilot3,60f39f67a5c2c9e50ce470ee,5,Amount of natural light,-1,A Moderate Amount,Very Little,direction,1826,,,,,2022-06-02 13:02:50,13474
5fb7dd473afbb1033b491811,ma_choice_v4_pilot3,5fb7dd473afbb1033b491811,6,Year building was built,-1,2020,1950,direction,2237,,,,,2022-06-02 13:02:53,13475
60f39f67a5c2c9e50ce470ee,ma_choice_v4_pilot3,60f39f67a5c2c9e50ce470ee,7,Size of yard,-1,600 square feet,0 square feet,direction,1775,,,,,2022-06-02 13:02:55,13476
5fb7dd473afbb1033b491811,ma_choice_v4_pilot3,5fb7dd473afbb1033b491811,3,Noise pollution,-1,Very Low,Very High,direction,2365,,,,,2022-06-02 13:02:59,13477
5fb7dd473afbb1033b491811,ma_choice_v4_pilot3,5fb7dd473afbb1033b491811,11,Size of home,-1,1800 square feet,600 square feet,direction,2133,,,,,2022-06-02 13:03:04,13478
60f39f67a5c2c9e50ce470ee,ma_choice_v4_pilot3,60f39f67a5c2c9e50ce470ee,2,Closeness to public transportation,-1,15 min away,10 min away,direction,3877,,,,,2022-06-02 13:03:05,13479
5fb7dd473afbb1033b491811,ma_choice_v4_pilot3,5fb7dd473afbb1033b491811,9,Quality of heat/AC system,-1,Very Good,Very Bad,direction,2092,,,,,2022-06-02 13:03:09,13480
60f39f67a5c2c9e50ce470ee,ma_choice_v4_pilot3,60f39f67a5c2c9e50ce470ee,3,Noise pollution,-1,Very Low,Very High,direction,2125,,,,,2022-06-02 13:03:11,13481
5fb7dd473afbb1033b491811,ma_choice_v4_pilot3,5fb7dd473afbb1033b491811,10,Amount of traffic,-1,Very Little,A Lot,direction,1950,,,,,2022-06-02 13:03:14,13482
5fb7dd473afbb1033b491811,ma_choice_v4_pilot3,5fb7dd473afbb1033b491811,5,Amount of natural light,-1,A Moderate Amount,Very Little,direction,2675,,,,,2022-06-02 13:03:20,13483
5fb7dd473afbb1033b491811,ma_choice_v4_pilot3,5fb7dd473afbb1033b491811,8,Quality of kitchen,-1,Very Good,Very Bad,direction,2261,,,,,2022-06-02 13:03:25,13484
5faacf98f75dbd4ca6323f3d,ma_choice_v4_pilot3,5faacf98f75dbd4ca6323f3d,0,Reputation of closest school,1,,,lex_att_rating,3237,,,,,2022-06-02 13:04:05,13485
5faacf98f75dbd4ca6323f3d,ma_choice_v4_pilot3,5faacf98f75dbd4ca6323f3d,0,Reputation of closest school,1,,,ew_att_rating,6611,,,,,2022-06-02 13:04:14,13486
5faacf98f75dbd4ca6323f3d,ma_choice_v4_pilot3,5faacf98f75dbd4ca6323f3d,0,Quality of heat/AC system,1,,,ew_att_rating,6611,,,,,2022-06-02 13:04:14,13487
5faacf98f75dbd4ca6323f3d,ma_choice_v4_pilot3,5faacf98f75dbd4ca6323f3d,0,Amount of natural light,1,,,ew_att_rating,6611,,,,,2022-06-02 13:04:14,13488
5faacf98f75dbd4ca6323f3d,ma_choice_v4_pilot3,5faacf98f75dbd4ca6323f3d,0,Quality of kitchen,1,,,ew_att_rating,6611,,,,,2022-06-02 13:04:14,13489
5faacf98f75dbd4ca6323f3d,ma_choice_v4_pilot3,5faacf98f75dbd4ca6323f3d,3,Noise pollution,12,,,wad_att_rating,4476,,,,,2022-06-02 13:04:22,13490
5faacf98f75dbd4ca6323f3d,ma_choice_v4_pilot3,5faacf98f75dbd4ca6323f3d,9,Quality of heat/AC system,75,,,wad_att_rating,3699,,,,,2022-06-02 13:04:25,13491
5faacf98f75dbd4ca6323f3d,ma_choice_v4_pilot3,5faacf98f75dbd4ca6323f3d,0,Closeness to parks,12,,,wad_att_rating,3474,,,,,2022-06-02 13:04:29,13492
5faacf98f75dbd4ca6323f3d,ma_choice_v4_pilot3,5faacf98f75dbd4ca6323f3d,8,Quality of kitchen,87,,,wad_att_rating,3812,,,,,2022-06-02 13:04:33,13493
5faacf98f75dbd4ca6323f3d,ma_choice_v4_pilot3,5faacf98f75dbd4ca6323f3d,6,Year building was built,0,,,wad_att_rating,4183,,,,,2022-06-02 13:04:37,13494
5faacf98f75dbd4ca6323f3d,ma_choice_v4_pilot3,5faacf98f75dbd4ca6323f3d,1,Closeness to cafes/restaurants,12,,,wad_att_rating,2709,,,,,2022-06-02 13:04:39,13495
60ee4077cdf4f24a1c607783,ma_choice_v4_pilot3,60ee4077cdf4f24a1c607783,1,Closeness to cafes/restaurants,5,,,wad_att_rating,16894,,,,,2022-06-02 13:04:40,13496
5faacf98f75dbd4ca6323f3d,ma_choice_v4_pilot3,5faacf98f75dbd4ca6323f3d,4,Reputation of closest school,95,,,wad_att_rating,4970,,,,,2022-06-02 13:04:44,13497
60ee4077cdf4f24a1c607783,ma_choice_v4_pilot3,60ee4077cdf4f24a1c607783,7,Size of yard,4,,,wad_att_rating,5239,,,,,2022-06-02 13:04:45,13498
5faacf98f75dbd4ca6323f3d,ma_choice_v4_pilot3,5faacf98f75dbd4ca6323f3d,10,Amount of traffic,12,,,wad_att_rating,3632,,,,,2022-06-02 13:04:48,13499
60ee4077cdf4f24a1c607783,ma_choice_v4_pilot3,60ee4077cdf4f24a1c607783,4,Reputation of closest school,4,,,wad_att_rating,4147,,,,,2022-06-02 13:04:49,13500
5faacf98f75dbd4ca6323f3d,ma_choice_v4_pilot3,5faacf98f75dbd4ca6323f3d,11,Size of home,5,,,wad_att_rating,2957,,,,,2022-06-02 13:04:51,13501
5faacf98f75dbd4ca6323f3d,ma_choice_v4_pilot3,5faacf98f75dbd4ca6323f3d,2,Closeness to public transportation,5,,,wad_att_rating,2957,,,,,2022-06-02 13:04:54,13502
5faacf98f75dbd4ca6323f3d,ma_choice_v4_pilot3,5faacf98f75dbd4ca6323f3d,7,Size of yard,12,,,wad_att_rating,4048,,,,,2022-06-02 13:04:58,13503
60ee4077cdf4f24a1c607783,ma_choice_v4_pilot3,60ee4077cdf4f24a1c607783,10,Amount of traffic,12,,,wad_att_rating,12704,,,,,2022-06-02 13:05:02,13504
5faacf98f75dbd4ca6323f3d,ma_choice_v4_pilot3,5faacf98f75dbd4ca6323f3d,5,Amount of natural light,75,,,wad_att_rating,5128,,,,,2022-06-02 13:05:03,13505
60ee4077cdf4f24a1c607783,ma_choice_v4_pilot3,60ee4077cdf4f24a1c607783,11,Size of home,5,,,wad_att_rating,4228,,,,,2022-06-02 13:05:06,13506
60ee4077cdf4f24a1c607783,ma_choice_v4_pilot3,60ee4077cdf4f24a1c607783,5,Amount of natural light,5,,,wad_att_rating,3982,,,,,2022-06-02 13:05:10,13507
60ee4077cdf4f24a1c607783,ma_choice_v4_pilot3,60ee4077cdf4f24a1c607783,3,Noise pollution,94,,,wad_att_rating,10632,,,,,2022-06-02 13:05:21,13508
60ee4077cdf4f24a1c607783,ma_choice_v4_pilot3,60ee4077cdf4f24a1c607783,8,Quality of kitchen,4,,,wad_att_rating,7429,,,,,2022-06-02 13:05:28,13509
60ee4077cdf4f24a1c607783,ma_choice_v4_pilot3,60ee4077cdf4f24a1c607783,0,Closeness to parks,3,,,wad_att_rating,5072,,,,,2022-06-02 13:05:34,13510
60ee4077cdf4f24a1c607783,ma_choice_v4_pilot3,60ee4077cdf4f24a1c607783,2,Closeness to public transportation,4,,,wad_att_rating,3483,,,,,2022-06-02 13:05:37,13511
60ee4077cdf4f24a1c607783,ma_choice_v4_pilot3,60ee4077cdf4f24a1c607783,6,Year building was built,5,,,wad_att_rating,7185,,,,,2022-06-02 13:05:44,13512
5faacf98f75dbd4ca6323f3d,ma_choice_v4_pilot3,5faacf98f75dbd4ca6323f3d,1,Closeness to cafes/restaurants,-1,15 min away,30 min away,direction,4993,,,,,2022-06-02 13:05:45,13513
60ee4077cdf4f24a1c607783,ma_choice_v4_pilot3,60ee4077cdf4f24a1c607783,9,Quality of heat/AC system,76,,,wad_att_rating,7540,,,,,2022-06-02 13:05:52,13514
5faacf98f75dbd4ca6323f3d,ma_choice_v4_pilot3,5faacf98f75dbd4ca6323f3d,3,Noise pollution,-1,Very Low,Very High,direction,1515,,,,,2022-06-02 13:05:53,13515
5faacf98f75dbd4ca6323f3d,ma_choice_v4_pilot3,5faacf98f75dbd4ca6323f3d,0,Closeness to parks,-1,10 min away,30 min away,direction,1337,,,,,2022-06-02 13:05:58,13516
5faacf98f75dbd4ca6323f3d,ma_choice_v4_pilot3,5faacf98f75dbd4ca6323f3d,2,Closeness to public transportation,-1,10 min away,30 min away,direction,2945,,,,,2022-06-02 13:06:05,13517
5faacf98f75dbd4ca6323f3d,ma_choice_v4_pilot3,5faacf98f75dbd4ca6323f3d,6,Year building was built,-1,1950,1985,direction,2496,,,,,2022-06-02 13:06:14,13518
60ee4077cdf4f24a1c607783,ma_choice_v4_pilot3,60ee4077cdf4f24a1c607783,0,Noise pollution,1,,,lex_att_rating,9153,,,,,2022-06-02 13:06:14,13519
5faacf98f75dbd4ca6323f3d,ma_choice_v4_pilot3,5faacf98f75dbd4ca6323f3d,8,Quality of kitchen,-1,Very Good,Very Bad,direction,2012,,,,,2022-06-02 13:06:21,13520
5faacf98f75dbd4ca6323f3d,ma_choice_v4_pilot3,5faacf98f75dbd4ca6323f3d,11,Size of home,-1,1800 square feet,600 square feet,direction,1371,,,,,2022-06-02 13:06:28,13521
5faacf98f75dbd4ca6323f3d,ma_choice_v4_pilot3,5faacf98f75dbd4ca6323f3d,5,Amount of natural light,-1,A Lot,Very Little,direction,1866,,,,,2022-06-02 13:06:32,13522
5faacf98f75dbd4ca6323f3d,ma_choice_v4_pilot3,5faacf98f75dbd4ca6323f3d,10,Amount of traffic,-1,Very Little,A Lot,direction,1630,,,,,2022-06-02 13:06:37,13523
5faacf98f75dbd4ca6323f3d,ma_choice_v4_pilot3,5faacf98f75dbd4ca6323f3d,9,Quality of heat/AC system,-1,Very Good,Very Bad,direction,1742,,,,,2022-06-02 13:06:42,13524
5faacf98f75dbd4ca6323f3d,ma_choice_v4_pilot3,5faacf98f75dbd4ca6323f3d,4,Reputation of closest school,-1,Very Good,Very Bad,direction,1674,,,,,2022-06-02 13:06:46,13525
60ee4077cdf4f24a1c607783,ma_choice_v4_pilot3,60ee4077cdf4f24a1c607783,0,Quality of heat/AC system,1,,,ew_att_rating,8850,,,,,2022-06-02 13:06:47,13526
60ee4077cdf4f24a1c607783,ma_choice_v4_pilot3,60ee4077cdf4f24a1c607783,0,Noise pollution,1,,,ew_att_rating,8850,,,,,2022-06-02 13:06:47,13527
5faacf98f75dbd4ca6323f3d,ma_choice_v4_pilot3,5faacf98f75dbd4ca6323f3d,7,Size of yard,-1,600 square feet,0 square feet,direction,1686,,,,,2022-06-02 13:06:52,13528
5d9373b0e04970001ab482da,ma_choice_v4_pilot3,5d9373b0e04970001ab482da,5,Amount of natural light,-1,A Lot,Very Little,direction,5006,,,,,2022-06-02 13:10:45,13529
5d9373b0e04970001ab482da,ma_choice_v4_pilot3,5d9373b0e04970001ab482da,1,Closeness to cafes/restaurants,-1,10 min away,30 min away,direction,3371,,,,,2022-06-02 13:10:53,13530
598e325033481c000164d2aa,ma_choice_v4_pilot3,598e325033481c000164d2aa,0,Reputation of closest school,1,,,lex_att_rating,5085,,,,,2022-06-02 13:10:53,13531
5d9373b0e04970001ab482da,ma_choice_v4_pilot3,5d9373b0e04970001ab482da,6,Year building was built,-1,1950,1985,direction,3449,,,,,2022-06-02 13:11:09,13532
5d9373b0e04970001ab482da,ma_choice_v4_pilot3,5d9373b0e04970001ab482da,0,Closeness to parks,-1,10 min away,30 min away,direction,2369,,,,,2022-06-02 13:11:15,13533
598e325033481c000164d2aa,ma_choice_v4_pilot3,598e325033481c000164d2aa,0,Reputation of closest school,1,,,ew_att_rating,13740,,,,,2022-06-02 13:11:20,13534
5d9373b0e04970001ab482da,ma_choice_v4_pilot3,5d9373b0e04970001ab482da,10,Amount of traffic,-1,Very Little,A Lot,direction,3371,,,,,2022-06-02 13:11:22,13535
5d9373b0e04970001ab482da,ma_choice_v4_pilot3,5d9373b0e04970001ab482da,2,Closeness to public transportation,-1,10 min away,30 min away,direction,2158,,,,,2022-06-02 13:11:27,13536
5d9373b0e04970001ab482da,ma_choice_v4_pilot3,5d9373b0e04970001ab482da,9,Quality of heat/AC system,-1,Very Good,Very Bad,direction,1850,,,,,2022-06-02 13:11:33,13537
598e325033481c000164d2aa,ma_choice_v4_pilot3,598e325033481c000164d2aa,3,Noise pollution,11,,,wad_att_rating,5948,,,,,2022-06-02 13:11:38,13538
5d9373b0e04970001ab482da,ma_choice_v4_pilot3,5d9373b0e04970001ab482da,8,Quality of kitchen,-1,Very Good,Very Bad,direction,2075,,,,,2022-06-02 13:11:38,13539
598e325033481c000164d2aa,ma_choice_v4_pilot3,598e325033481c000164d2aa,5,Amount of natural light,11,,,wad_att_rating,4362,,,,,2022-06-02 13:11:42,13540
598e325033481c000164d2aa,ma_choice_v4_pilot3,598e325033481c000164d2aa,1,Closeness to cafes/restaurants,0,,,wad_att_rating,4472,,,,,2022-06-02 13:11:47,13541
5db0a97f127d4000117cdfa0,ma_choice_v4_pilot3,5db0a97f127d4000117cdfa0,0,Noise pollution,1,,,lex_att_rating,11875,,,,,2022-06-02 13:11:48,13542
5d9373b0e04970001ab482da,ma_choice_v4_pilot3,5d9373b0e04970001ab482da,11,Size of home,-1,1800 square feet,600 square feet,direction,2075,,,,,2022-06-02 13:11:49,13543
598e325033481c000164d2aa,ma_choice_v4_pilot3,598e325033481c000164d2aa,2,Closeness to public transportation,0,,,wad_att_rating,3944,,,,,2022-06-02 13:11:51,13544
598e325033481c000164d2aa,ma_choice_v4_pilot3,598e325033481c000164d2aa,6,Year building was built,0,,,wad_att_rating,4402,,,,,2022-06-02 13:11:55,13545
5d9373b0e04970001ab482da,ma_choice_v4_pilot3,5d9373b0e04970001ab482da,3,Noise pollution,-1,Very Low,Very High,direction,2393,,,,,2022-06-02 13:11:56,13546
5db0a97f127d4000117cdfa0,ma_choice_v4_pilot3,5db0a97f127d4000117cdfa0,9,Quality of heat/AC system,78,,,wad_att_rating,4455,,,,,2022-06-02 13:11:57,13547
598e325033481c000164d2aa,ma_choice_v4_pilot3,598e325033481c000164d2aa,4,Reputation of closest school,100,,,wad_att_rating,5885,,,,,2022-06-02 13:12:01,13548
5db0a97f127d4000117cdfa0,ma_choice_v4_pilot3,5db0a97f127d4000117cdfa0,8,Quality of kitchen,22,,,wad_att_rating,4158,,,,,2022-06-02 13:12:02,13549
598e325033481c000164d2aa,ma_choice_v4_pilot3,598e325033481c000164d2aa,10,Amount of traffic,0,,,wad_att_rating,3269,,,,,2022-06-02 13:12:04,13550
5d9373b0e04970001ab482da,ma_choice_v4_pilot3,5d9373b0e04970001ab482da,4,Reputation of closest school,-1,Very Good,Very Bad,direction,2231,,,,,2022-06-02 13:12:04,13551
598e325033481c000164d2aa,ma_choice_v4_pilot3,598e325033481c000164d2aa,0,Closeness to parks,0,,,wad_att_rating,3260,,,,,2022-06-02 13:12:07,13552
5db0a97f127d4000117cdfa0,ma_choice_v4_pilot3,5db0a97f127d4000117cdfa0,11,Size of home,24,,,wad_att_rating,6158,,,,,2022-06-02 13:12:08,13553
5d9373b0e04970001ab482da,ma_choice_v4_pilot3,5d9373b0e04970001ab482da,7,Size of yard,-1,600 square feet,0 square feet,direction,2082,,,,,2022-06-02 13:12:10,13554
598e325033481c000164d2aa,ma_choice_v4_pilot3,598e325033481c000164d2aa,11,Size of home,0,,,wad_att_rating,3433,,,,,2022-06-02 13:12:11,13555
598e325033481c000164d2aa,ma_choice_v4_pilot3,598e325033481c000164d2aa,8,Quality of kitchen,0,,,wad_att_rating,3090,,,,,2022-06-02 13:12:14,13556
5db0a97f127d4000117cdfa0,ma_choice_v4_pilot3,5db0a97f127d4000117cdfa0,0,Closeness to parks,4,,,wad_att_rating,6942,,,,,2022-06-02 13:12:15,13557
598e325033481c000164d2aa,ma_choice_v4_pilot3,598e325033481c000164d2aa,7,Size of yard,0,,,wad_att_rating,3431,,,,,2022-06-02 13:12:17,13558
5db0a97f127d4000117cdfa0,ma_choice_v4_pilot3,5db0a97f127d4000117cdfa0,10,Amount of traffic,49,,,wad_att_rating,3414,,,,,2022-06-02 13:12:18,13559
598e325033481c000164d2aa,ma_choice_v4_pilot3,598e325033481c000164d2aa,9,Quality of heat/AC system,42,,,wad_att_rating,4435,,,,,2022-06-02 13:12:22,13560
5db0a97f127d4000117cdfa0,ma_choice_v4_pilot3,5db0a97f127d4000117cdfa0,3,Noise pollution,90,,,wad_att_rating,5886,,,,,2022-06-02 13:12:24,13561
60ff31c5fc87fc400ee2d060,ma_choice_v4_pilot3,60ff31c5fc87fc400ee2d060,0,Quality of heat/AC system,1,,,ew_att_rating,17476,,,,,2022-06-02 13:12:25,13562
60ff31c5fc87fc400ee2d060,ma_choice_v4_pilot3,60ff31c5fc87fc400ee2d060,0,Closeness to parks,1,,,ew_att_rating,17476,,,,,2022-06-02 13:12:25,13563
60ff31c5fc87fc400ee2d060,ma_choice_v4_pilot3,60ff31c5fc87fc400ee2d060,0,Noise pollution,1,,,ew_att_rating,17476,,,,,2022-06-02 13:12:25,13564
60ff31c5fc87fc400ee2d060,ma_choice_v4_pilot3,60ff31c5fc87fc400ee2d060,0,Quality of kitchen,1,,,ew_att_rating,17476,,,,,2022-06-02 13:12:25,13565
60ff31c5fc87fc400ee2d060,ma_choice_v4_pilot3,60ff31c5fc87fc400ee2d060,0,Amount of traffic,1,,,ew_att_rating,17476,,,,,2022-06-02 13:12:25,13566
60ff31c5fc87fc400ee2d060,ma_choice_v4_pilot3,60ff31c5fc87fc400ee2d060,0,Amount of natural light,1,,,ew_att_rating,17476,,,,,2022-06-02 13:12:25,13567
60ff31c5fc87fc400ee2d060,ma_choice_v4_pilot3,60ff31c5fc87fc400ee2d060,0,Closeness to public transportation,1,,,ew_att_rating,17476,,,,,2022-06-02 13:12:25,13568
60ff31c5fc87fc400ee2d060,ma_choice_v4_pilot3,60ff31c5fc87fc400ee2d060,0,Size of yard,1,,,ew_att_rating,17476,,,,,2022-06-02 13:12:25,13569
60ff31c5fc87fc400ee2d060,ma_choice_v4_pilot3,60ff31c5fc87fc400ee2d060,0,Year building was built,1,,,ew_att_rating,17476,,,,,2022-06-02 13:12:25,13570
5db0a97f127d4000117cdfa0,ma_choice_v4_pilot3,5db0a97f127d4000117cdfa0,4,Reputation of closest school,16,,,wad_att_rating,3354,,,,,2022-06-02 13:12:27,13571
5db0a97f127d4000117cdfa0,ma_choice_v4_pilot3,5db0a97f127d4000117cdfa0,5,Amount of natural light,23,,,wad_att_rating,3242,,,,,2022-06-02 13:12:31,13572
5db0a97f127d4000117cdfa0,ma_choice_v4_pilot3,5db0a97f127d4000117cdfa0,7,Size of yard,2,,,wad_att_rating,3066,,,,,2022-06-02 13:12:34,13573
5db0a97f127d4000117cdfa0,ma_choice_v4_pilot3,5db0a97f127d4000117cdfa0,1,Closeness to cafes/restaurants,25,,,wad_att_rating,2835,,,,,2022-06-02 13:12:36,13574
5db0a97f127d4000117cdfa0,ma_choice_v4_pilot3,5db0a97f127d4000117cdfa0,6,Year building was built,26,,,wad_att_rating,4118,,,,,2022-06-02 13:12:41,13575
60ff31c5fc87fc400ee2d060,ma_choice_v4_pilot3,60ff31c5fc87fc400ee2d060,10,Amount of traffic,24,,,wad_att_rating,4720,,,,,2022-06-02 13:12:43,13576
5db0a97f127d4000117cdfa0,ma_choice_v4_pilot3,5db0a97f127d4000117cdfa0,2,Closeness to public transportation,2,,,wad_att_rating,3618,,,,,2022-06-02 13:12:44,13577
60ff31c5fc87fc400ee2d060,ma_choice_v4_pilot3,60ff31c5fc87fc400ee2d060,3,Noise pollution,49,,,wad_att_rating,3368,,,,,2022-06-02 13:12:47,13578
60ff31c5fc87fc400ee2d060,ma_choice_v4_pilot3,60ff31c5fc87fc400ee2d060,1,Closeness to cafes/restaurants,0,,,wad_att_rating,3275,,,,,2022-06-02 13:12:50,13579
60ff31c5fc87fc400ee2d060,ma_choice_v4_pilot3,60ff31c5fc87fc400ee2d060,2,Closeness to public transportation,50,,,wad_att_rating,3255,,,,,2022-06-02 13:12:53,13580
60ff31c5fc87fc400ee2d060,ma_choice_v4_pilot3,60ff31c5fc87fc400ee2d060,5,Amount of natural light,62,,,wad_att_rating,3474,,,,,2022-06-02 13:12:57,13581
60ff31c5fc87fc400ee2d060,ma_choice_v4_pilot3,60ff31c5fc87fc400ee2d060,11,Size of home,0,,,wad_att_rating,2916,,,,,2022-06-02 13:13:00,13582
60ff31c5fc87fc400ee2d060,ma_choice_v4_pilot3,60ff31c5fc87fc400ee2d060,4,Reputation of closest school,0,,,wad_att_rating,2612,,,,,2022-06-02 13:13:02,13583
60ff31c5fc87fc400ee2d060,ma_choice_v4_pilot3,60ff31c5fc87fc400ee2d060,9,Quality of heat/AC system,75,,,wad_att_rating,2873,,,,,2022-06-02 13:13:05,13584
60ff31c5fc87fc400ee2d060,ma_choice_v4_pilot3,60ff31c5fc87fc400ee2d060,7,Size of yard,75,,,wad_att_rating,2695,,,,,2022-06-02 13:13:08,13585
5a216247c3e60a0001780c42,ma_choice_v4_pilot3,5a216247c3e60a0001780c42,3,Noise pollution,11,,,wad_att_rating,6210,,,,,2022-06-02 13:13:10,13586
60ff31c5fc87fc400ee2d060,ma_choice_v4_pilot3,60ff31c5fc87fc400ee2d060,8,Quality of kitchen,50,,,wad_att_rating,3309,,,,,2022-06-02 13:13:11,13587
5a216247c3e60a0001780c42,ma_choice_v4_pilot3,5a216247c3e60a0001780c42,11,Size of home,0,,,wad_att_rating,2880,,,,,2022-06-02 13:13:12,13588
5db0a97f127d4000117cdfa0,ma_choice_v4_pilot3,5db0a97f127d4000117cdfa0,0,Amount of traffic,1,,,ew_att_rating,16407,,,,,2022-06-02 13:13:14,13589
5db0a97f127d4000117cdfa0,ma_choice_v4_pilot3,5db0a97f127d4000117cdfa0,0,Noise pollution,1,,,ew_att_rating,16407,,,,,2022-06-02 13:13:14,13590
5db0a97f127d4000117cdfa0,ma_choice_v4_pilot3,5db0a97f127d4000117cdfa0,0,Quality of heat/AC system,1,,,ew_att_rating,16407,,,,,2022-06-02 13:13:14,13591
60ff31c5fc87fc400ee2d060,ma_choice_v4_pilot3,60ff31c5fc87fc400ee2d060,6,Year building was built,36,,,wad_att_rating,3139,,,,,2022-06-02 13:13:14,13592
5a216247c3e60a0001780c42,ma_choice_v4_pilot3,5a216247c3e60a0001780c42,2,Closeness to public transportation,0,,,wad_att_rating,3090,,,,,2022-06-02 13:13:16,13593
60ff31c5fc87fc400ee2d060,ma_choice_v4_pilot3,60ff31c5fc87fc400ee2d060,0,Closeness to parks,50,,,wad_att_rating,3813,,,,,2022-06-02 13:13:18,13594
5a216247c3e60a0001780c42,ma_choice_v4_pilot3,5a216247c3e60a0001780c42,1,Closeness to cafes/restaurants,5,,,wad_att_rating,3520,,,,,2022-06-02 13:13:19,13595
5a216247c3e60a0001780c42,ma_choice_v4_pilot3,5a216247c3e60a0001780c42,4,Reputation of closest school,25,,,wad_att_rating,3424,,,,,2022-06-02 13:13:22,13596
5a216247c3e60a0001780c42,ma_choice_v4_pilot3,5a216247c3e60a0001780c42,7,Size of yard,12,,,wad_att_rating,3206,,,,,2022-06-02 13:13:26,13597
5a216247c3e60a0001780c42,ma_choice_v4_pilot3,5a216247c3e60a0001780c42,0,Closeness to parks,0,,,wad_att_rating,2498,,,,,2022-06-02 13:13:28,13598
5a216247c3e60a0001780c42,ma_choice_v4_pilot3,5a216247c3e60a0001780c42,10,Amount of traffic,0,,,wad_att_rating,2185,,,,,2022-06-02 13:13:30,13599
5a216247c3e60a0001780c42,ma_choice_v4_pilot3,5a216247c3e60a0001780c42,5,Amount of natural light,0,,,wad_att_rating,2736,,,,,2022-06-02 13:13:33,13600
5a216247c3e60a0001780c42,ma_choice_v4_pilot3,5a216247c3e60a0001780c42,9,Quality of heat/AC system,94,,,wad_att_rating,6147,,,,,2022-06-02 13:13:39,13601
60ff31c5fc87fc400ee2d060,ma_choice_v4_pilot3,60ff31c5fc87fc400ee2d060,0,Quality of heat/AC system,1,,,lex_att_rating,11504,,,,,2022-06-02 13:13:40,13602
610825130bf4669d1b167efe,ma_choice_v4_pilot3,610825130bf4669d1b167efe,7,Size of yard,25,,,wad_att_rating,6714,,,,,2022-06-02 13:13:43,13603
5a216247c3e60a0001780c42,ma_choice_v4_pilot3,5a216247c3e60a0001780c42,8,Quality of kitchen,25,,,wad_att_rating,3942,,,,,2022-06-02 13:13:44,13604
5a216247c3e60a0001780c42,ma_choice_v4_pilot3,5a216247c3e60a0001780c42,6,Year building was built,0,,,wad_att_rating,2382,,,,,2022-06-02 13:13:46,13605
58cbd23d5d42920001414dd8,ma_choice_v4_pilot3,58cbd23d5d42920001414dd8,0,Noise pollution,1,,,lex_att_rating,5400,,,,,2022-06-02 13:13:46,13606
610825130bf4669d1b167efe,ma_choice_v4_pilot3,610825130bf4669d1b167efe,0,Closeness to parks,0,,,wad_att_rating,5197,,,,,2022-06-02 13:13:48,13607
610825130bf4669d1b167efe,ma_choice_v4_pilot3,610825130bf4669d1b167efe,6,Year building was built,0,,,wad_att_rating,3711,,,,,2022-06-02 13:13:52,13608
610825130bf4669d1b167efe,ma_choice_v4_pilot3,610825130bf4669d1b167efe,3,Noise pollution,4,,,wad_att_rating,3146,,,,,2022-06-02 13:13:55,13609
5a216247c3e60a0001780c42,ma_choice_v4_pilot3,5a216247c3e60a0001780c42,0,Quality of heat/AC system,1,,,lex_att_rating,5211,,,,,2022-06-02 13:13:56,13610
58cbd23d5d42920001414dd8,ma_choice_v4_pilot3,58cbd23d5d42920001414dd8,6,Year building was built,37,,,wad_att_rating,7176,,,,,2022-06-02 13:13:56,13611
610825130bf4669d1b167efe,ma_choice_v4_pilot3,610825130bf4669d1b167efe,8,Quality of kitchen,75,,,wad_att_rating,4226,,,,,2022-06-02 13:13:59,13612
58cbd23d5d42920001414dd8,ma_choice_v4_pilot3,58cbd23d5d42920001414dd8,0,Closeness to parks,0,,,wad_att_rating,3703,,,,,2022-06-02 13:14:00,13613
58cbd23d5d42920001414dd8,ma_choice_v4_pilot3,58cbd23d5d42920001414dd8,1,Closeness to cafes/restaurants,0,,,wad_att_rating,2853,,,,,2022-06-02 13:14:03,13614
610825130bf4669d1b167efe,ma_choice_v4_pilot3,610825130bf4669d1b167efe,5,Amount of natural light,62,,,wad_att_rating,5249,,,,,2022-06-02 13:14:04,13615
58cbd23d5d42920001414dd8,ma_choice_v4_pilot3,58cbd23d5d42920001414dd8,9,Quality of heat/AC system,0,,,wad_att_rating,2504,,,,,2022-06-02 13:14:05,13616
610825130bf4669d1b167efe,ma_choice_v4_pilot3,610825130bf4669d1b167efe,9,Quality of heat/AC system,75,,,wad_att_rating,3536,,,,,2022-06-02 13:14:08,13617
58cbd23d5d42920001414dd8,ma_choice_v4_pilot3,58cbd23d5d42920001414dd8,2,Closeness to public transportation,0,,,wad_att_rating,2740,,,,,2022-06-02 13:14:08,13618
610825130bf4669d1b167efe,ma_choice_v4_pilot3,610825130bf4669d1b167efe,2,Closeness to public transportation,0,,,wad_att_rating,3009,,,,,2022-06-02 13:14:11,13619
58cbd23d5d42920001414dd8,ma_choice_v4_pilot3,58cbd23d5d42920001414dd8,4,Reputation of closest school,49,,,wad_att_rating,3672,,,,,2022-06-02 13:14:11,13620
58cbd23d5d42920001414dd8,ma_choice_v4_pilot3,58cbd23d5d42920001414dd8,11,Size of home,0,,,wad_att_rating,2622,,,,,2022-06-02 13:14:14,13621
610825130bf4669d1b167efe,ma_choice_v4_pilot3,610825130bf4669d1b167efe,1,Closeness to cafes/restaurants,24,,,wad_att_rating,3524,,,,,2022-06-02 13:14:14,13622
58cbd23d5d42920001414dd8,ma_choice_v4_pilot3,58cbd23d5d42920001414dd8,7,Size of yard,0,,,wad_att_rating,2358,,,,,2022-06-02 13:14:16,13623
610825130bf4669d1b167efe,ma_choice_v4_pilot3,610825130bf4669d1b167efe,10,Amount of traffic,3,,,wad_att_rating,3406,,,,,2022-06-02 13:14:18,13624
58cbd23d5d42920001414dd8,ma_choice_v4_pilot3,58cbd23d5d42920001414dd8,8,Quality of kitchen,0,,,wad_att_rating,2246,,,,,2022-06-02 13:14:19,13625
5a216247c3e60a0001780c42,ma_choice_v4_pilot3,5a216247c3e60a0001780c42,0,Quality of kitchen,1,,,ew_att_rating,16574,,,,,2022-06-02 13:14:20,13626
5a216247c3e60a0001780c42,ma_choice_v4_pilot3,5a216247c3e60a0001780c42,0,Noise pollution,1,,,ew_att_rating,16574,,,,,2022-06-02 13:14:20,13627
5a216247c3e60a0001780c42,ma_choice_v4_pilot3,5a216247c3e60a0001780c42,0,Quality of heat/AC system,1,,,ew_att_rating,16574,,,,,2022-06-02 13:14:20,13628
5a216247c3e60a0001780c42,ma_choice_v4_pilot3,5a216247c3e60a0001780c42,0,Size of yard,1,,,ew_att_rating,16574,,,,,2022-06-02 13:14:20,13629
5a216247c3e60a0001780c42,ma_choice_v4_pilot3,5a216247c3e60a0001780c42,0,Reputation of closest school,1,,,ew_att_rating,16574,,,,,2022-06-02 13:14:20,13630
610825130bf4669d1b167efe,ma_choice_v4_pilot3,610825130bf4669d1b167efe,4,Reputation of closest school,89,,,wad_att_rating,3008,,,,,2022-06-02 13:14:21,13631
58cbd23d5d42920001414dd8,ma_choice_v4_pilot3,58cbd23d5d42920001414dd8,10,Amount of traffic,0,,,wad_att_rating,2304,,,,,2022-06-02 13:14:21,13632
608ca27f0fc273d395eb58bd,ma_choice_v4_pilot3,608ca27f0fc273d395eb58bd,6,Year building was built,50,,,wad_att_rating,14092,,,,,2022-06-02 13:14:22,13633
58cbd23d5d42920001414dd8,ma_choice_v4_pilot3,58cbd23d5d42920001414dd8,5,Amount of natural light,0,,,wad_att_rating,2192,,,,,2022-06-02 13:14:23,13634
610825130bf4669d1b167efe,ma_choice_v4_pilot3,610825130bf4669d1b167efe,11,Size of home,25,,,wad_att_rating,3565,,,,,2022-06-02 13:14:24,13635
58cbd23d5d42920001414dd8,ma_choice_v4_pilot3,58cbd23d5d42920001414dd8,3,Noise pollution,88,,,wad_att_rating,4014,,,,,2022-06-02 13:14:27,13636
608ca27f0fc273d395eb58bd,ma_choice_v4_pilot3,608ca27f0fc273d395eb58bd,9,Quality of heat/AC system,100,,,wad_att_rating,10379,,,,,2022-06-02 13:14:32,13637
608ca27f0fc273d395eb58bd,ma_choice_v4_pilot3,608ca27f0fc273d395eb58bd,7,Size of yard,0,,,wad_att_rating,4994,,,,,2022-06-02 13:14:37,13638
608ca27f0fc273d395eb58bd,ma_choice_v4_pilot3,608ca27f0fc273d395eb58bd,0,Closeness to parks,0,,,wad_att_rating,3928,,,,,2022-06-02 13:14:41,13639
58cbd23d5d42920001414dd8,ma_choice_v4_pilot3,58cbd23d5d42920001414dd8,0,Year building was built,1,,,ew_att_rating,11370,,,,,2022-06-02 13:14:43,13640
58cbd23d5d42920001414dd8,ma_choice_v4_pilot3,58cbd23d5d42920001414dd8,0,Noise pollution,1,,,ew_att_rating,11370,,,,,2022-06-02 13:14:43,13641
58cbd23d5d42920001414dd8,ma_choice_v4_pilot3,58cbd23d5d42920001414dd8,0,Reputation of closest school,1,,,ew_att_rating,11370,,,,,2022-06-02 13:14:43,13642
608ca27f0fc273d395eb58bd,ma_choice_v4_pilot3,608ca27f0fc273d395eb58bd,11,Size of home,0,,,wad_att_rating,3789,,,,,2022-06-02 13:14:45,13643
610825130bf4669d1b167efe,ma_choice_v4_pilot3,610825130bf4669d1b167efe,0,Reputation of closest school,1,,,lex_att_rating,9248,,,,,2022-06-02 13:14:45,13644
608ca27f0fc273d395eb58bd,ma_choice_v4_pilot3,608ca27f0fc273d395eb58bd,5,Amount of natural light,0,,,wad_att_rating,3678,,,,,2022-06-02 13:14:48,13645
608ca27f0fc273d395eb58bd,ma_choice_v4_pilot3,608ca27f0fc273d395eb58bd,10,Amount of traffic,0,,,wad_att_rating,3254,,,,,2022-06-02 13:14:52,13646
608ca27f0fc273d395eb58bd,ma_choice_v4_pilot3,608ca27f0fc273d395eb58bd,2,Closeness to public transportation,0,,,wad_att_rating,3379,,,,,2022-06-02 13:14:55,13647
608ca27f0fc273d395eb58bd,ma_choice_v4_pilot3,608ca27f0fc273d395eb58bd,8,Quality of kitchen,75,,,wad_att_rating,6898,,,,,2022-06-02 13:15:02,13648
608ca27f0fc273d395eb58bd,ma_choice_v4_pilot3,608ca27f0fc273d395eb58bd,1,Closeness to cafes/restaurants,0,,,wad_att_rating,3805,,,,,2022-06-02 13:15:06,13649
608ca27f0fc273d395eb58bd,ma_choice_v4_pilot3,608ca27f0fc273d395eb58bd,4,Reputation of closest school,0,,,wad_att_rating,3554,,,,,2022-06-02 13:15:09,13650
608ca27f0fc273d395eb58bd,ma_choice_v4_pilot3,608ca27f0fc273d395eb58bd,3,Noise pollution,0,,,wad_att_rating,3456,,,,,2022-06-02 13:15:13,13651
610825130bf4669d1b167efe,ma_choice_v4_pilot3,610825130bf4669d1b167efe,0,Reputation of closest school,1,,,ew_att_rating,20317,,,,,2022-06-02 13:15:16,13652
610825130bf4669d1b167efe,ma_choice_v4_pilot3,610825130bf4669d1b167efe,0,Amount of natural light,1,,,ew_att_rating,20317,,,,,2022-06-02 13:15:16,13653
610825130bf4669d1b167efe,ma_choice_v4_pilot3,610825130bf4669d1b167efe,0,Size of yard,1,,,ew_att_rating,20317,,,,,2022-06-02 13:15:16,13654
610825130bf4669d1b167efe,ma_choice_v4_pilot3,610825130bf4669d1b167efe,0,Quality of heat/AC system,1,,,ew_att_rating,20317,,,,,2022-06-02 13:15:17,13655
610825130bf4669d1b167efe,ma_choice_v4_pilot3,610825130bf4669d1b167efe,0,Quality of kitchen,1,,,ew_att_rating,20317,,,,,2022-06-02 13:15:17,13656
58cbd23d5d42920001414dd8,ma_choice_v4_pilot3,58cbd23d5d42920001414dd8,7,Size of yard,-1,600 square feet,0 square feet,direction,2934,,,,,2022-06-02 13:15:18,13657
58cbd23d5d42920001414dd8,ma_choice_v4_pilot3,58cbd23d5d42920001414dd8,10,Amount of traffic,-1,Very Little,A Lot,direction,2685,,,,,2022-06-02 13:15:23,13658
5a216247c3e60a0001780c42,ma_choice_v4_pilot3,5a216247c3e60a0001780c42,6,Year building was built,-1,2020,1950,direction,2880,,,,,2022-06-02 13:15:27,13659
58cbd23d5d42920001414dd8,ma_choice_v4_pilot3,58cbd23d5d42920001414dd8,5,Amount of natural light,-1,A Moderate Amount,Very Little,direction,2497,,,,,2022-06-02 13:15:28,13660
5a216247c3e60a0001780c42,ma_choice_v4_pilot3,5a216247c3e60a0001780c42,4,Reputation of closest school,-1,Very Good,Very Bad,direction,2583,,,,,2022-06-02 13:15:32,13661
608ca27f0fc273d395eb58bd,ma_choice_v4_pilot3,608ca27f0fc273d395eb58bd,0,Quality of heat/AC system,1,,,lex_att_rating,6921,,,,,2022-06-02 13:15:33,13662
58cbd23d5d42920001414dd8,ma_choice_v4_pilot3,58cbd23d5d42920001414dd8,4,Reputation of closest school,-1,Very Good,Very Bad,direction,1869,,,,,2022-06-02 13:15:33,13663
5a216247c3e60a0001780c42,ma_choice_v4_pilot3,5a216247c3e60a0001780c42,8,Quality of kitchen,-1,Very Good,Very Bad,direction,1645,,,,,2022-06-02 13:15:37,13664
58cbd23d5d42920001414dd8,ma_choice_v4_pilot3,58cbd23d5d42920001414dd8,11,Size of home,-1,1200 square feet,600 square feet,direction,1813,,,,,2022-06-02 13:15:38,13665
5a216247c3e60a0001780c42,ma_choice_v4_pilot3,5a216247c3e60a0001780c42,7,Size of yard,-1,300 square feet,0 square feet,direction,1995,,,,,2022-06-02 13:15:42,13666
58cbd23d5d42920001414dd8,ma_choice_v4_pilot3,58cbd23d5d42920001414dd8,0,Closeness to parks,-1,10 min away,30 min away,direction,2273,,,,,2022-06-02 13:15:44,13667
58cbd23d5d42920001414dd8,ma_choice_v4_pilot3,58cbd23d5d42920001414dd8,3,Noise pollution,-1,Very Low,Very High,direction,1611,,,,,2022-06-02 13:15:48,13668
5a216247c3e60a0001780c42,ma_choice_v4_pilot3,5a216247c3e60a0001780c42,5,Amount of natural light,-1,A Moderate Amount,Very Little,direction,3543,,,,,2022-06-02 13:15:49,13669
5a216247c3e60a0001780c42,ma_choice_v4_pilot3,5a216247c3e60a0001780c42,3,Noise pollution,-1,Very Low,Very High,direction,1512,,,,,2022-06-02 13:15:54,13670
58cbd23d5d42920001414dd8,ma_choice_v4_pilot3,58cbd23d5d42920001414dd8,6,Year building was built,-1,2020,1985,direction,1836,,,,,2022-06-02 13:15:55,13671
5a216247c3e60a0001780c42,ma_choice_v4_pilot3,5a216247c3e60a0001780c42,10,Amount of traffic,-1,Very Little,A Lot,direction,2289,,,,,2022-06-02 13:16:00,13672
58cbd23d5d42920001414dd8,ma_choice_v4_pilot3,58cbd23d5d42920001414dd8,2,Closeness to public transportation,-1,30 min away,10 min away,direction,1852,,,,,2022-06-02 13:16:01,13673
5a216247c3e60a0001780c42,ma_choice_v4_pilot3,5a216247c3e60a0001780c42,9,Quality of heat/AC system,-1,Very Good,Very Bad,direction,1519,,,,,2022-06-02 13:16:06,13674
608ca27f0fc273d395eb58bd,ma_choice_v4_pilot3,608ca27f0fc273d395eb58bd,0,Year building was built,1,,,ew_att_rating,18072,,,,,2022-06-02 13:16:08,13675
608ca27f0fc273d395eb58bd,ma_choice_v4_pilot3,608ca27f0fc273d395eb58bd,0,Quality of heat/AC system,1,,,ew_att_rating,18072,,,,,2022-06-02 13:16:08,13676
608ca27f0fc273d395eb58bd,ma_choice_v4_pilot3,608ca27f0fc273d395eb58bd,0,Quality of kitchen,1,,,ew_att_rating,18072,,,,,2022-06-02 13:16:08,13677
58cbd23d5d42920001414dd8,ma_choice_v4_pilot3,58cbd23d5d42920001414dd8,1,Closeness to cafes/restaurants,-1,15 min away,30 min away,direction,3066,,,,,2022-06-02 13:16:08,13678
5e89ce643ac81466c24cb5d8,ma_choice_v4_pilot3,5e89ce643ac81466c24cb5d8,0,Closeness to parks,0,,,wad_att_rating,2618,,,,,2022-06-02 13:16:08,13679
5a216247c3e60a0001780c42,ma_choice_v4_pilot3,5a216247c3e60a0001780c42,1,Closeness to cafes/restaurants,-1,10 min away,30 min away,direction,2305,,,,,2022-06-02 13:16:11,13680
5e89ce643ac81466c24cb5d8,ma_choice_v4_pilot3,5e89ce643ac81466c24cb5d8,10,Amount of traffic,23,,,wad_att_rating,2861,,,,,2022-06-02 13:16:11,13681
58cbd23d5d42920001414dd8,ma_choice_v4_pilot3,58cbd23d5d42920001414dd8,9,Quality of heat/AC system,-1,Very Good,Very Bad,direction,1773,,,,,2022-06-02 13:16:13,13682
5a216247c3e60a0001780c42,ma_choice_v4_pilot3,5a216247c3e60a0001780c42,0,Closeness to parks,-1,10 min away,30 min away,direction,1615,,,,,2022-06-02 13:16:15,13683
5e89ce643ac81466c24cb5d8,ma_choice_v4_pilot3,5e89ce643ac81466c24cb5d8,5,Amount of natural light,25,,,wad_att_rating,4043,,,,,2022-06-02 13:16:15,13684
58cbd23d5d42920001414dd8,ma_choice_v4_pilot3,58cbd23d5d42920001414dd8,8,Quality of kitchen,-1,Very Good,Very Bad,direction,1945,,,,,2022-06-02 13:16:17,13685
5e89ce643ac81466c24cb5d8,ma_choice_v4_pilot3,5e89ce643ac81466c24cb5d8,11,Size of home,39,,,wad_att_rating,3146,,,,,2022-06-02 13:16:18,13686
5a216247c3e60a0001780c42,ma_choice_v4_pilot3,5a216247c3e60a0001780c42,11,Size of home,-1,1200 square feet,600 square feet,direction,1822,,,,,2022-06-02 13:16:21,13687
5e89ce643ac81466c24cb5d8,ma_choice_v4_pilot3,5e89ce643ac81466c24cb5d8,4,Reputation of closest school,13,,,wad_att_rating,3938,,,,,2022-06-02 13:16:22,13688
5e89ce643ac81466c24cb5d8,ma_choice_v4_pilot3,5e89ce643ac81466c24cb5d8,7,Size of yard,0,,,wad_att_rating,2226,,,,,2022-06-02 13:16:25,13689
5a216247c3e60a0001780c42,ma_choice_v4_pilot3,5a216247c3e60a0001780c42,2,Closeness to public transportation,-1,10 min away,30 min away,direction,1784,,,,,2022-06-02 13:16:26,13690
5e89ce643ac81466c24cb5d8,ma_choice_v4_pilot3,5e89ce643ac81466c24cb5d8,6,Year building was built,12,,,wad_att_rating,2753,,,,,2022-06-02 13:16:27,13691
5e89ce643ac81466c24cb5d8,ma_choice_v4_pilot3,5e89ce643ac81466c24cb5d8,3,Noise pollution,61,,,wad_att_rating,4173,,,,,2022-06-02 13:16:32,13692
5e89ce643ac81466c24cb5d8,ma_choice_v4_pilot3,5e89ce643ac81466c24cb5d8,8,Quality of kitchen,76,,,wad_att_rating,2739,,,,,2022-06-02 13:16:34,13693
5e89ce643ac81466c24cb5d8,ma_choice_v4_pilot3,5e89ce643ac81466c24cb5d8,9,Quality of heat/AC system,99,,,wad_att_rating,2946,,,,,2022-06-02 13:16:37,13694
5e89ce643ac81466c24cb5d8,ma_choice_v4_pilot3,5e89ce643ac81466c24cb5d8,1,Closeness to cafes/restaurants,37,,,wad_att_rating,3330,,,,,2022-06-02 13:16:41,13695
5e89ce643ac81466c24cb5d8,ma_choice_v4_pilot3,5e89ce643ac81466c24cb5d8,2,Closeness to public transportation,0,,,wad_att_rating,2292,,,,,2022-06-02 13:16:43,13696
60f989f2b726f86c3d24e13e,ma_choice_v4_pilot3,60f989f2b726f86c3d24e13e,4,Reputation of closest school,41,,,wad_att_rating,7207,,,,,2022-06-02 13:16:52,13697
60f989f2b726f86c3d24e13e,ma_choice_v4_pilot3,60f989f2b726f86c3d24e13e,0,Closeness to parks,31,,,wad_att_rating,4574,,,,,2022-06-02 13:16:56,13698
60f989f2b726f86c3d24e13e,ma_choice_v4_pilot3,60f989f2b726f86c3d24e13e,2,Closeness to public transportation,71,,,wad_att_rating,2900,,,,,2022-06-02 13:16:59,13699
5e89ce643ac81466c24cb5d8,ma_choice_v4_pilot3,5e89ce643ac81466c24cb5d8,0,Quality of kitchen,1,,,ew_att_rating,14374,,,,,2022-06-02 13:17:00,13700
5e89ce643ac81466c24cb5d8,ma_choice_v4_pilot3,5e89ce643ac81466c24cb5d8,0,Noise pollution,1,,,ew_att_rating,14374,,,,,2022-06-02 13:17:00,13701
5e89ce643ac81466c24cb5d8,ma_choice_v4_pilot3,5e89ce643ac81466c24cb5d8,0,Quality of heat/AC system,1,,,ew_att_rating,14374,,,,,2022-06-02 13:17:00,13702
60f989f2b726f86c3d24e13e,ma_choice_v4_pilot3,60f989f2b726f86c3d24e13e,3,Noise pollution,88,,,wad_att_rating,4556,,,,,2022-06-02 13:17:04,13703
5e89ce643ac81466c24cb5d8,ma_choice_v4_pilot3,5e89ce643ac81466c24cb5d8,0,Quality of heat/AC system,1,,,lex_att_rating,2827,,,,,2022-06-02 13:17:06,13704
60f989f2b726f86c3d24e13e,ma_choice_v4_pilot3,60f989f2b726f86c3d24e13e,9,Quality of heat/AC system,76,,,wad_att_rating,2852,,,,,2022-06-02 13:17:06,13705
60f989f2b726f86c3d24e13e,ma_choice_v4_pilot3,60f989f2b726f86c3d24e13e,6,Year building was built,81,,,wad_att_rating,3765,,,,,2022-06-02 13:17:10,13706
60f989f2b726f86c3d24e13e,ma_choice_v4_pilot3,60f989f2b726f86c3d24e13e,11,Size of home,63,,,wad_att_rating,3334,,,,,2022-06-02 13:17:14,13707
60f989f2b726f86c3d24e13e,ma_choice_v4_pilot3,60f989f2b726f86c3d24e13e,5,Amount of natural light,87,,,wad_att_rating,2707,,,,,2022-06-02 13:17:16,13708
60f989f2b726f86c3d24e13e,ma_choice_v4_pilot3,60f989f2b726f86c3d24e13e,8,Quality of kitchen,79,,,wad_att_rating,2757,,,,,2022-06-02 13:17:19,13709
60f989f2b726f86c3d24e13e,ma_choice_v4_pilot3,60f989f2b726f86c3d24e13e,7,Size of yard,44,,,wad_att_rating,3165,,,,,2022-06-02 13:17:22,13710
60f989f2b726f86c3d24e13e,ma_choice_v4_pilot3,60f989f2b726f86c3d24e13e,10,Amount of traffic,71,,,wad_att_rating,3796,,,,,2022-06-02 13:17:26,13711
60f989f2b726f86c3d24e13e,ma_choice_v4_pilot3,60f989f2b726f86c3d24e13e,1,Closeness to cafes/restaurants,44,,,wad_att_rating,3941,,,,,2022-06-02 13:17:30,13712
5e89ce643ac81466c24cb5d8,ma_choice_v4_pilot3,5e89ce643ac81466c24cb5d8,9,Quality of heat/AC system,-1,Very Good,Very Bad,direction,3316,,,,,2022-06-02 13:17:42,13713
5e89ce643ac81466c24cb5d8,ma_choice_v4_pilot3,5e89ce643ac81466c24cb5d8,10,Amount of traffic,-1,A Little,A Lot,direction,2644,,,,,2022-06-02 13:17:51,13714
5e89ce643ac81466c24cb5d8,ma_choice_v4_pilot3,5e89ce643ac81466c24cb5d8,0,Closeness to parks,-1,10 min away,30 min away,direction,1831,,,,,2022-06-02 13:17:56,13715
60f989f2b726f86c3d24e13e,ma_choice_v4_pilot3,60f989f2b726f86c3d24e13e,0,Closeness to public transportation,1,,,ew_att_rating,18226,,,,,2022-06-02 13:17:59,13716
60f989f2b726f86c3d24e13e,ma_choice_v4_pilot3,60f989f2b726f86c3d24e13e,0,Noise pollution,1,,,ew_att_rating,18226,,,,,2022-06-02 13:17:59,13717
60f989f2b726f86c3d24e13e,ma_choice_v4_pilot3,60f989f2b726f86c3d24e13e,0,Reputation of closest school,1,,,ew_att_rating,18226,,,,,2022-06-02 13:17:59,13718
60f989f2b726f86c3d24e13e,ma_choice_v4_pilot3,60f989f2b726f86c3d24e13e,0,Amount of natural light,1,,,ew_att_rating,18226,,,,,2022-06-02 13:17:59,13719
60f989f2b726f86c3d24e13e,ma_choice_v4_pilot3,60f989f2b726f86c3d24e13e,0,Amount of traffic,1,,,ew_att_rating,18226,,,,,2022-06-02 13:17:59,13720
60f989f2b726f86c3d24e13e,ma_choice_v4_pilot3,60f989f2b726f86c3d24e13e,0,Size of home,1,,,ew_att_rating,18226,,,,,2022-06-02 13:17:59,13721
60f989f2b726f86c3d24e13e,ma_choice_v4_pilot3,60f989f2b726f86c3d24e13e,0,Size of yard,1,,,ew_att_rating,18226,,,,,2022-06-02 13:17:59,13722
60f989f2b726f86c3d24e13e,ma_choice_v4_pilot3,60f989f2b726f86c3d24e13e,0,Year building was built,1,,,ew_att_rating,18226,,,,,2022-06-02 13:17:59,13723
5e89ce643ac81466c24cb5d8,ma_choice_v4_pilot3,5e89ce643ac81466c24cb5d8,7,Size of yard,-1,300 square feet,0 square feet,direction,4859,,,,,2022-06-02 13:18:05,13724
5e89ce643ac81466c24cb5d8,ma_choice_v4_pilot3,5e89ce643ac81466c24cb5d8,4,Reputation of closest school,-1,Moderate,Very Bad,direction,2025,,,,,2022-06-02 13:18:10,13725
5e89ce643ac81466c24cb5d8,ma_choice_v4_pilot3,5e89ce643ac81466c24cb5d8,6,Year building was built,-1,2020,1950,direction,3295,,,,,2022-06-02 13:18:16,13726
5e89ce643ac81466c24cb5d8,ma_choice_v4_pilot3,5e89ce643ac81466c24cb5d8,11,Size of home,-1,1200 square feet,600 square feet,direction,1422,,,,,2022-06-02 13:18:21,13727
5e89ce643ac81466c24cb5d8,ma_choice_v4_pilot3,5e89ce643ac81466c24cb5d8,3,Noise pollution,-1,Very Low,Very High,direction,2234,,,,,2022-06-02 13:18:26,13728
6101667971d68405d105698a,ma_choice_v4_pilot3,6101667971d68405d105698a,8,Quality of kitchen,1,,,wad_att_rating,3846,,,,,2022-06-02 13:18:26,13729
6101667971d68405d105698a,ma_choice_v4_pilot3,6101667971d68405d105698a,2,Closeness to public transportation,2,,,wad_att_rating,3493,,,,,2022-06-02 13:18:30,13730
5e89ce643ac81466c24cb5d8,ma_choice_v4_pilot3,5e89ce643ac81466c24cb5d8,5,Amount of natural light,-1,A Moderate Amount,Very Little,direction,1236,,,,,2022-06-02 13:18:30,13731
6101667971d68405d105698a,ma_choice_v4_pilot3,6101667971d68405d105698a,6,Year building was built,1,,,wad_att_rating,2676,,,,,2022-06-02 13:18:33,13732
60f989f2b726f86c3d24e13e,ma_choice_v4_pilot3,60f989f2b726f86c3d24e13e,0,Year building was built,1,,,lex_att_rating,24991,,,,,2022-06-02 13:18:33,13733
5e89ce643ac81466c24cb5d8,ma_choice_v4_pilot3,5e89ce643ac81466c24cb5d8,1,Closeness to cafes/restaurants,-1,10 min away,30 min away,direction,2017,,,,,2022-06-02 13:18:35,13734
6101667971d68405d105698a,ma_choice_v4_pilot3,6101667971d68405d105698a,4,Reputation of closest school,5,,,wad_att_rating,3429,,,,,2022-06-02 13:18:36,13735
6101667971d68405d105698a,ma_choice_v4_pilot3,6101667971d68405d105698a,10,Amount of traffic,3,,,wad_att_rating,3957,,,,,2022-06-02 13:18:40,13736
5e89ce643ac81466c24cb5d8,ma_choice_v4_pilot3,5e89ce643ac81466c24cb5d8,8,Quality of kitchen,-1,Good,Very Bad,direction,1419,,,,,2022-06-02 13:18:40,13737
6101667971d68405d105698a,ma_choice_v4_pilot3,6101667971d68405d105698a,1,Closeness to cafes/restaurants,8,,,wad_att_rating,3565,,,,,2022-06-02 13:18:43,13738
5e89ce643ac81466c24cb5d8,ma_choice_v4_pilot3,5e89ce643ac81466c24cb5d8,2,Closeness to public transportation,-1,10 min away,30 min away,direction,1753,,,,,2022-06-02 13:18:45,13739
5b15307351caaf0001228d9b,ma_choice_v4_pilot3,5b15307351caaf0001228d9b,0,Closeness to parks,11,,,wad_att_rating,6389,,,,,2022-06-02 13:18:46,13740
6101667971d68405d105698a,ma_choice_v4_pilot3,6101667971d68405d105698a,11,Size of home,100,,,wad_att_rating,3181,,,,,2022-06-02 13:18:47,13741
6101667971d68405d105698a,ma_choice_v4_pilot3,6101667971d68405d105698a,0,Closeness to parks,7,,,wad_att_rating,2405,,,,,2022-06-02 13:18:49,13742
6101667971d68405d105698a,ma_choice_v4_pilot3,6101667971d68405d105698a,7,Size of yard,30,,,wad_att_rating,2781,,,,,2022-06-02 13:18:52,13743
5b15307351caaf0001228d9b,ma_choice_v4_pilot3,5b15307351caaf0001228d9b,10,Amount of traffic,0,,,wad_att_rating,6932,,,,,2022-06-02 13:18:53,13744
6101667971d68405d105698a,ma_choice_v4_pilot3,6101667971d68405d105698a,9,Quality of heat/AC system,7,,,wad_att_rating,3557,,,,,2022-06-02 13:18:55,13745
5b15307351caaf0001228d9b,ma_choice_v4_pilot3,5b15307351caaf0001228d9b,3,Noise pollution,18,,,wad_att_rating,4371,,,,,2022-06-02 13:18:57,13746
6101667971d68405d105698a,ma_choice_v4_pilot3,6101667971d68405d105698a,5,Amount of natural light,3,,,wad_att_rating,2565,,,,,2022-06-02 13:18:58,13747
5b15307351caaf0001228d9b,ma_choice_v4_pilot3,5b15307351caaf0001228d9b,2,Closeness to public transportation,0,,,wad_att_rating,3109,,,,,2022-06-02 13:19:00,13748
6101667971d68405d105698a,ma_choice_v4_pilot3,6101667971d68405d105698a,3,Noise pollution,28,,,wad_att_rating,3061,,,,,2022-06-02 13:19:01,13749
5b15307351caaf0001228d9b,ma_choice_v4_pilot3,5b15307351caaf0001228d9b,9,Quality of heat/AC system,32,,,wad_att_rating,3265,,,,,2022-06-02 13:19:04,13750
5b15307351caaf0001228d9b,ma_choice_v4_pilot3,5b15307351caaf0001228d9b,6,Year building was built,8,,,wad_att_rating,3368,,,,,2022-06-02 13:19:07,13751
5b15307351caaf0001228d9b,ma_choice_v4_pilot3,5b15307351caaf0001228d9b,5,Amount of natural light,12,,,wad_att_rating,3079,,,,,2022-06-02 13:19:10,13752
6101667971d68405d105698a,ma_choice_v4_pilot3,6101667971d68405d105698a,0,Size of home,1,,,lex_att_rating,5197,,,,,2022-06-02 13:19:13,13753
5b15307351caaf0001228d9b,ma_choice_v4_pilot3,5b15307351caaf0001228d9b,8,Quality of kitchen,25,,,wad_att_rating,4170,,,,,2022-06-02 13:19:14,13754
5b15307351caaf0001228d9b,ma_choice_v4_pilot3,5b15307351caaf0001228d9b,4,Reputation of closest school,5,,,wad_att_rating,3677,,,,,2022-06-02 13:19:18,13755
5b15307351caaf0001228d9b,ma_choice_v4_pilot3,5b15307351caaf0001228d9b,1,Closeness to cafes/restaurants,0,,,wad_att_rating,3074,,,,,2022-06-02 13:19:21,13756
5b15307351caaf0001228d9b,ma_choice_v4_pilot3,5b15307351caaf0001228d9b,11,Size of home,92,,,wad_att_rating,4830,,,,,2022-06-02 13:19:26,13757
5b15307351caaf0001228d9b,ma_choice_v4_pilot3,5b15307351caaf0001228d9b,7,Size of yard,98,,,wad_att_rating,3878,,,,,2022-06-02 13:19:30,13758
6101667971d68405d105698a,ma_choice_v4_pilot3,6101667971d68405d105698a,0,Noise pollution,1,,,ew_att_rating,10239,,,,,2022-06-02 13:19:36,13759
6101667971d68405d105698a,ma_choice_v4_pilot3,6101667971d68405d105698a,0,Size of home,1,,,ew_att_rating,10239,,,,,2022-06-02 13:19:36,13760
6101667971d68405d105698a,ma_choice_v4_pilot3,6101667971d68405d105698a,0,Size of yard,1,,,ew_att_rating,10239,,,,,2022-06-02 13:19:36,13761
60f989f2b726f86c3d24e13e,ma_choice_v4_pilot3,60f989f2b726f86c3d24e13e,5,Amount of natural light,-1,A Moderate Amount,A Little,direction,8501,,,,,2022-06-02 13:19:46,13762
60ff31c5fc87fc400ee2d060,ma_choice_v4_pilot3,60ff31c5fc87fc400ee2d060,0,Closeness to parks,-1,10 min away,30 min away,direction,3243,,,,,2022-06-02 13:19:53,13763
60f989f2b726f86c3d24e13e,ma_choice_v4_pilot3,60f989f2b726f86c3d24e13e,3,Noise pollution,-1,Low,High,direction,3669,,,,,2022-06-02 13:19:58,13764
5b15307351caaf0001228d9b,ma_choice_v4_pilot3,5b15307351caaf0001228d9b,0,Size of home,1,,,ew_att_rating,20390,,,,,2022-06-02 13:19:59,13765
5b15307351caaf0001228d9b,ma_choice_v4_pilot3,5b15307351caaf0001228d9b,0,Year building was built,1,,,ew_att_rating,20390,,,,,2022-06-02 13:19:59,13766
5b15307351caaf0001228d9b,ma_choice_v4_pilot3,5b15307351caaf0001228d9b,0,Quality of kitchen,1,,,ew_att_rating,20390,,,,,2022-06-02 13:19:59,13767
5b15307351caaf0001228d9b,ma_choice_v4_pilot3,5b15307351caaf0001228d9b,0,Size of yard,1,,,ew_att_rating,20390,,,,,2022-06-02 13:19:59,13768
60ff31c5fc87fc400ee2d060,ma_choice_v4_pilot3,60ff31c5fc87fc400ee2d060,11,Size of home,-1,1800 square feet,600 square feet,direction,2455,,,,,2022-06-02 13:20:01,13769
60f989f2b726f86c3d24e13e,ma_choice_v4_pilot3,60f989f2b726f86c3d24e13e,4,Reputation of closest school,-1,Very Good,Very Bad,direction,1630,,,,,2022-06-02 13:20:04,13770
5b15307351caaf0001228d9b,ma_choice_v4_pilot3,5b15307351caaf0001228d9b,0,Size of home,1,,,lex_att_rating,3477,,,,,2022-06-02 13:20:06,13771
60f989f2b726f86c3d24e13e,ma_choice_v4_pilot3,60f989f2b726f86c3d24e13e,8,Quality of kitchen,-1,Very Good,Bad,direction,1038,,,,,2022-06-02 13:20:08,13772
60ff31c5fc87fc400ee2d060,ma_choice_v4_pilot3,60ff31c5fc87fc400ee2d060,8,Quality of kitchen,-1,Very Good,Very Bad,direction,5559,,,,,2022-06-02 13:20:10,13773
60f989f2b726f86c3d24e13e,ma_choice_v4_pilot3,60f989f2b726f86c3d24e13e,7,Size of yard,-1,300 square feet,0 square feet,direction,1414,,,,,2022-06-02 13:20:13,13774
60f989f2b726f86c3d24e13e,ma_choice_v4_pilot3,60f989f2b726f86c3d24e13e,9,Quality of heat/AC system,-1,Good,Bad,direction,1167,,,,,2022-06-02 13:20:17,13775
60ff31c5fc87fc400ee2d060,ma_choice_v4_pilot3,60ff31c5fc87fc400ee2d060,5,Amount of natural light,-1,A Lot,Very Little,direction,5261,,,,,2022-06-02 13:20:20,13776
60f989f2b726f86c3d24e13e,ma_choice_v4_pilot3,60f989f2b726f86c3d24e13e,0,Closeness to parks,-1,20 min away,10 min away,direction,1895,,,,,2022-06-02 13:20:24,13777
60ff31c5fc87fc400ee2d060,ma_choice_v4_pilot3,60ff31c5fc87fc400ee2d060,7,Size of yard,-1,600 square feet,0 square feet,direction,2347,,,,,2022-06-02 13:20:27,13778
60f989f2b726f86c3d24e13e,ma_choice_v4_pilot3,60f989f2b726f86c3d24e13e,11,Size of home,-1,1200 square feet,600 square feet,direction,1366,,,,,2022-06-02 13:20:29,13779
60ff31c5fc87fc400ee2d060,ma_choice_v4_pilot3,60ff31c5fc87fc400ee2d060,2,Closeness to public transportation,-1,10 min away,30 min away,direction,3283,,,,,2022-06-02 13:20:35,13780
60f989f2b726f86c3d24e13e,ma_choice_v4_pilot3,60f989f2b726f86c3d24e13e,1,Closeness to cafes/restaurants,-1,25 min away,10 min away,direction,1598,,,,,2022-06-02 13:20:35,13781
60ff31c5fc87fc400ee2d060,ma_choice_v4_pilot3,60ff31c5fc87fc400ee2d060,9,Quality of heat/AC system,-1,Very Good,Very Bad,direction,2463,,,,,2022-06-02 13:20:40,13782
60f989f2b726f86c3d24e13e,ma_choice_v4_pilot3,60f989f2b726f86c3d24e13e,2,Closeness to public transportation,-1,15 min away,10 min away,direction,1174,,,,,2022-06-02 13:20:42,13783
60ff31c5fc87fc400ee2d060,ma_choice_v4_pilot3,60ff31c5fc87fc400ee2d060,3,Noise pollution,-1,Very Low,Very High,direction,2183,,,,,2022-06-02 13:20:46,13784
60f989f2b726f86c3d24e13e,ma_choice_v4_pilot3,60f989f2b726f86c3d24e13e,6,Year building was built,-1,1985,1950,direction,1086,,,,,2022-06-02 13:20:47,13785
60ff31c5fc87fc400ee2d060,ma_choice_v4_pilot3,60ff31c5fc87fc400ee2d060,6,Year building was built,-1,1950,2020,direction,2402,,,,,2022-06-02 13:20:53,13786
60f989f2b726f86c3d24e13e,ma_choice_v4_pilot3,60f989f2b726f86c3d24e13e,10,Amount of traffic,-1,Very Little,A Moderate Amount,direction,1606,,,,,2022-06-02 13:20:55,13787
60ff31c5fc87fc400ee2d060,ma_choice_v4_pilot3,60ff31c5fc87fc400ee2d060,10,Amount of traffic,-1,Very Little,A Lot,direction,2067,,,,,2022-06-02 13:20:59,13788
60ff31c5fc87fc400ee2d060,ma_choice_v4_pilot3,60ff31c5fc87fc400ee2d060,4,Reputation of closest school,-1,Very Good,Very Bad,direction,2350,,,,,2022-06-02 13:21:07,13789
60ff31c5fc87fc400ee2d060,ma_choice_v4_pilot3,60ff31c5fc87fc400ee2d060,1,Closeness to cafes/restaurants,-1,10 min away,30 min away,direction,1959,,,,,2022-06-02 13:21:14,13790
61151fdceebe67102a0983ad,ma_choice_v4_pilot3,61151fdceebe67102a0983ad,0,Reputation of closest school,1,,,lex_att_rating,5046,,,,,2022-06-02 13:21:51,13791
61151fdceebe67102a0983ad,ma_choice_v4_pilot3,61151fdceebe67102a0983ad,0,Noise pollution,1,,,ew_att_rating,8191,,,,,2022-06-02 13:22:07,13792
61151fdceebe67102a0983ad,ma_choice_v4_pilot3,61151fdceebe67102a0983ad,0,Reputation of closest school,1,,,ew_att_rating,8191,,,,,2022-06-02 13:22:07,13793
61151fdceebe67102a0983ad,ma_choice_v4_pilot3,61151fdceebe67102a0983ad,0,Quality of heat/AC system,1,,,ew_att_rating,8191,,,,,2022-06-02 13:22:07,13794
608069ed5ce99ea156285118,ma_choice_v4_pilot3,608069ed5ce99ea156285118,0,Amount of natural light,1,,,ew_att_rating,19898,,,,,2022-06-02 13:22:21,13795
608069ed5ce99ea156285118,ma_choice_v4_pilot3,608069ed5ce99ea156285118,0,Amount of traffic,1,,,ew_att_rating,19898,,,,,2022-06-02 13:22:21,13796
608069ed5ce99ea156285118,ma_choice_v4_pilot3,608069ed5ce99ea156285118,0,Reputation of closest school,1,,,ew_att_rating,19898,,,,,2022-06-02 13:22:21,13797
598e325033481c000164d2aa,ma_choice_v4_pilot3,598e325033481c000164d2aa,6,Year building was built,-1,2020,1950,direction,3308,,,,,2022-06-02 13:22:22,13798
60ee4077cdf4f24a1c607783,ma_choice_v4_pilot3,60ee4077cdf4f24a1c607783,4,Reputation of closest school,-1,Moderate,Very Bad,direction,8565,,,,,2022-06-02 13:22:27,13799
598e325033481c000164d2aa,ma_choice_v4_pilot3,598e325033481c000164d2aa,7,Size of yard,-1,600 square feet,300 square feet,direction,3479,,,,,2022-06-02 13:22:29,13800
61151fdceebe67102a0983ad,ma_choice_v4_pilot3,61151fdceebe67102a0983ad,4,Reputation of closest school,88,,,wad_att_rating,6493,,,,,2022-06-02 13:22:33,13801
61151fdceebe67102a0983ad,ma_choice_v4_pilot3,61151fdceebe67102a0983ad,1,Closeness to cafes/restaurants,0,,,wad_att_rating,2851,,,,,2022-06-02 13:22:36,13802
608069ed5ce99ea156285118,ma_choice_v4_pilot3,608069ed5ce99ea156285118,7,Size of yard,25,,,wad_att_rating,8466,,,,,2022-06-02 13:22:36,13803
598e325033481c000164d2aa,ma_choice_v4_pilot3,598e325033481c000164d2aa,0,Closeness to parks,-1,20 min away,10 min away,direction,2304,,,,,2022-06-02 13:22:38,13804
61151fdceebe67102a0983ad,ma_choice_v4_pilot3,61151fdceebe67102a0983ad,7,Size of yard,0,,,wad_att_rating,2472,,,,,2022-06-02 13:22:38,13805
608069ed5ce99ea156285118,ma_choice_v4_pilot3,608069ed5ce99ea156285118,0,Closeness to parks,25,,,wad_att_rating,4653,,,,,2022-06-02 13:22:41,13806
61151fdceebe67102a0983ad,ma_choice_v4_pilot3,61151fdceebe67102a0983ad,11,Size of home,24,,,wad_att_rating,2712,,,,,2022-06-02 13:22:41,13807
60ee4077cdf4f24a1c607783,ma_choice_v4_pilot3,60ee4077cdf4f24a1c607783,1,Closeness to cafes/restaurants,-1,10 min away,30 min away,direction,6826,,,,,2022-06-02 13:22:42,13808
61151fdceebe67102a0983ad,ma_choice_v4_pilot3,61151fdceebe67102a0983ad,6,Year building was built,0,,,wad_att_rating,2470,,,,,2022-06-02 13:22:43,13809
598e325033481c000164d2aa,ma_choice_v4_pilot3,598e325033481c000164d2aa,5,Amount of natural light,-1,A Moderate Amount,A Little,direction,2545,,,,,2022-06-02 13:22:44,13810
5db0a97f127d4000117cdfa0,ma_choice_v4_pilot3,5db0a97f127d4000117cdfa0,7,Size of yard,-1,300 square feet,0 square feet,direction,4890,,,,,2022-06-02 13:22:44,13811
61151fdceebe67102a0983ad,ma_choice_v4_pilot3,61151fdceebe67102a0983ad,2,Closeness to public transportation,0,,,wad_att_rating,2861,,,,,2022-06-02 13:22:46,13812
608069ed5ce99ea156285118,ma_choice_v4_pilot3,608069ed5ce99ea156285118,9,Quality of heat/AC system,12,,,wad_att_rating,5788,,,,,2022-06-02 13:22:47,13813
5db0a97f127d4000117cdfa0,ma_choice_v4_pilot3,5db0a97f127d4000117cdfa0,5,Amount of natural light,-1,A Moderate Amount,Very Little,direction,1958,,,,,2022-06-02 13:22:50,13814
61151fdceebe67102a0983ad,ma_choice_v4_pilot3,61151fdceebe67102a0983ad,3,Noise pollution,68,,,wad_att_rating,3502,,,,,2022-06-02 13:22:50,13815
608069ed5ce99ea156285118,ma_choice_v4_pilot3,608069ed5ce99ea156285118,3,Noise pollution,13,,,wad_att_rating,4517,,,,,2022-06-02 13:22:51,13816
598e325033481c000164d2aa,ma_choice_v4_pilot3,598e325033481c000164d2aa,1,Closeness to cafes/restaurants,-1,25 min away,10 min away,direction,3261,,,,,2022-06-02 13:22:52,13817
61151fdceebe67102a0983ad,ma_choice_v4_pilot3,61151fdceebe67102a0983ad,8,Quality of kitchen,13,,,wad_att_rating,3290,,,,,2022-06-02 13:22:53,13818
5db0a97f127d4000117cdfa0,ma_choice_v4_pilot3,5db0a97f127d4000117cdfa0,11,Size of home,-1,1200 square feet,600 square feet,direction,1954,,,,,2022-06-02 13:22:56,13819
61151fdceebe67102a0983ad,ma_choice_v4_pilot3,61151fdceebe67102a0983ad,0,Closeness to parks,15,,,wad_att_rating,2640,,,,,2022-06-02 13:22:56,13820
60ee4077cdf4f24a1c607783,ma_choice_v4_pilot3,60ee4077cdf4f24a1c607783,11,Size of home,-1,1200 square feet,600 square feet,direction,7377,,,,,2022-06-02 13:22:56,13821
608069ed5ce99ea156285118,ma_choice_v4_pilot3,608069ed5ce99ea156285118,1,Closeness to cafes/restaurants,37,,,wad_att_rating,5932,,,,,2022-06-02 13:22:57,13822
61151fdceebe67102a0983ad,ma_choice_v4_pilot3,61151fdceebe67102a0983ad,5,Amount of natural light,0,,,wad_att_rating,2992,,,,,2022-06-02 13:22:59,13823
5db0a97f127d4000117cdfa0,ma_choice_v4_pilot3,5db0a97f127d4000117cdfa0,3,Noise pollution,-1,Very Low,Very High,direction,2142,,,,,2022-06-02 13:23:01,13824
608069ed5ce99ea156285118,ma_choice_v4_pilot3,608069ed5ce99ea156285118,11,Size of home,49,,,wad_att_rating,4618,,,,,2022-06-02 13:23:02,13825
61151fdceebe67102a0983ad,ma_choice_v4_pilot3,61151fdceebe67102a0983ad,9,Quality of heat/AC system,66,,,wad_att_rating,4153,,,,,2022-06-02 13:23:03,13826
598e325033481c000164d2aa,ma_choice_v4_pilot3,598e325033481c000164d2aa,9,Quality of heat/AC system,-1,Good,Moderate,direction,2794,,,,,2022-06-02 13:23:03,13827
608069ed5ce99ea156285118,ma_choice_v4_pilot3,608069ed5ce99ea156285118,4,Reputation of closest school,100,,,wad_att_rating,4606,,,,,2022-06-02 13:23:06,13828
61151fdceebe67102a0983ad,ma_choice_v4_pilot3,61151fdceebe67102a0983ad,10,Amount of traffic,23,,,wad_att_rating,3511,,,,,2022-06-02 13:23:06,13829
608069ed5ce99ea156285118,ma_choice_v4_pilot3,608069ed5ce99ea156285118,6,Year building was built,36,,,wad_att_rating,4245,,,,,2022-06-02 13:23:11,13830
598e325033481c000164d2aa,ma_choice_v4_pilot3,598e325033481c000164d2aa,10,Amount of traffic,-1,A Little,A Lot,direction,2950,,,,,2022-06-02 13:23:11,13831
60ee4077cdf4f24a1c607783,ma_choice_v4_pilot3,60ee4077cdf4f24a1c607783,3,Noise pollution,-1,Very Low,Very High,direction,3760,,,,,2022-06-02 13:23:11,13832
5db0a97f127d4000117cdfa0,ma_choice_v4_pilot3,5db0a97f127d4000117cdfa0,2,Closeness to public transportation,-1,15 min away,30 min away,direction,3706,,,,,2022-06-02 13:23:14,13833
608069ed5ce99ea156285118,ma_choice_v4_pilot3,608069ed5ce99ea156285118,5,Amount of natural light,75,,,wad_att_rating,4583,,,,,2022-06-02 13:23:15,13834
608069ed5ce99ea156285118,ma_choice_v4_pilot3,608069ed5ce99ea156285118,2,Closeness to public transportation,3,,,wad_att_rating,4466,,,,,2022-06-02 13:23:20,13835
598e325033481c000164d2aa,ma_choice_v4_pilot3,598e325033481c000164d2aa,4,Reputation of closest school,-1,Very Good,Moderate,direction,2716,,,,,2022-06-02 13:23:20,13836
5db0a97f127d4000117cdfa0,ma_choice_v4_pilot3,5db0a97f127d4000117cdfa0,0,Closeness to parks,-1,15 min away,30 min away,direction,2614,,,,,2022-06-02 13:23:23,13837
60ee4077cdf4f24a1c607783,ma_choice_v4_pilot3,60ee4077cdf4f24a1c607783,7,Size of yard,-1,300 square feet,0 square feet,direction,4122,,,,,2022-06-02 13:23:24,13838
608069ed5ce99ea156285118,ma_choice_v4_pilot3,608069ed5ce99ea156285118,8,Quality of kitchen,50,,,wad_att_rating,5271,,,,,2022-06-02 13:23:25,13839
598e325033481c000164d2aa,ma_choice_v4_pilot3,598e325033481c000164d2aa,11,Size of home,-1,1800 square feet,600 square feet,direction,1639,,,,,2022-06-02 13:23:25,13840
5db0a97f127d4000117cdfa0,ma_choice_v4_pilot3,5db0a97f127d4000117cdfa0,1,Closeness to cafes/restaurants,-1,10 min away,30 min away,direction,3302,,,,,2022-06-02 13:23:32,13841
598e325033481c000164d2aa,ma_choice_v4_pilot3,598e325033481c000164d2aa,8,Quality of kitchen,-1,Good,Moderate,direction,2506,,,,,2022-06-02 13:23:32,13842
608069ed5ce99ea156285118,ma_choice_v4_pilot3,608069ed5ce99ea156285118,10,Amount of traffic,85,,,wad_att_rating,7770,,,,,2022-06-02 13:23:33,13843
60ee4077cdf4f24a1c607783,ma_choice_v4_pilot3,60ee4077cdf4f24a1c607783,10,Amount of traffic,-1,Very Little,A Lot,direction,3640,,,,,2022-06-02 13:23:35,13844
5db0a97f127d4000117cdfa0,ma_choice_v4_pilot3,5db0a97f127d4000117cdfa0,9,Quality of heat/AC system,-1,Very Good,Very Bad,direction,2062,,,,,2022-06-02 13:23:39,13845
610825130bf4669d1b167efe,ma_choice_v4_pilot3,610825130bf4669d1b167efe,6,Year building was built,-1,2020,1950,direction,4522,,,,,2022-06-02 13:23:40,13846
598e325033481c000164d2aa,ma_choice_v4_pilot3,598e325033481c000164d2aa,3,Noise pollution,-1,Low,High,direction,1916,,,,,2022-06-02 13:23:42,13847
5db0a97f127d4000117cdfa0,ma_choice_v4_pilot3,5db0a97f127d4000117cdfa0,8,Quality of kitchen,-1,Good,Very Bad,direction,2086,,,,,2022-06-02 13:23:45,13848
610825130bf4669d1b167efe,ma_choice_v4_pilot3,610825130bf4669d1b167efe,7,Size of yard,-1,600 square feet,0 square feet,direction,2483,,,,,2022-06-02 13:23:49,13849
608069ed5ce99ea156285118,ma_choice_v4_pilot3,608069ed5ce99ea156285118,0,Reputation of closest school,1,,,lex_att_rating,5607,,,,,2022-06-02 13:23:49,13850
5db0a97f127d4000117cdfa0,ma_choice_v4_pilot3,5db0a97f127d4000117cdfa0,10,Amount of traffic,-1,Very Little,A Lot,direction,1806,,,,,2022-06-02 13:23:50,13851
598e325033481c000164d2aa,ma_choice_v4_pilot3,598e325033481c000164d2aa,2,Closeness to public transportation,-1,25 min away,10 min away,direction,3080,,,,,2022-06-02 13:23:52,13852
5db0a97f127d4000117cdfa0,ma_choice_v4_pilot3,5db0a97f127d4000117cdfa0,6,Year building was built,-1,2020,1950,direction,1566,,,,,2022-06-02 13:23:57,13853
610825130bf4669d1b167efe,ma_choice_v4_pilot3,610825130bf4669d1b167efe,3,Noise pollution,-1,Very Low,Very High,direction,2790,,,,,2022-06-02 13:23:57,13854
60ee4077cdf4f24a1c607783,ma_choice_v4_pilot3,60ee4077cdf4f24a1c607783,5,Amount of natural light,-1,A Little,A Lot,direction,4466,,,,,2022-06-02 13:24:00,13855
610825130bf4669d1b167efe,ma_choice_v4_pilot3,610825130bf4669d1b167efe,8,Quality of kitchen,-1,Very Good,Very Bad,direction,2710,,,,,2022-06-02 13:24:03,13856
5db0a97f127d4000117cdfa0,ma_choice_v4_pilot3,5db0a97f127d4000117cdfa0,4,Reputation of closest school,-1,Good,Very Bad,direction,2022,,,,,2022-06-02 13:24:07,13857
60ee4077cdf4f24a1c607783,ma_choice_v4_pilot3,60ee4077cdf4f24a1c607783,2,Closeness to public transportation,-1,10 min away,30 min away,direction,3288,,,,,2022-06-02 13:24:09,13858
610825130bf4669d1b167efe,ma_choice_v4_pilot3,610825130bf4669d1b167efe,0,Closeness to parks,-1,10 min away,30 min away,direction,2126,,,,,2022-06-02 13:24:10,13859
53987712fdf99b68e3a45021,ma_choice_v4_pilot3,53987712fdf99b68e3a45021,0,Quality of kitchen,1,,,lex_att_rating,2440,,,,,2022-06-02 13:24:16,13860
610825130bf4669d1b167efe,ma_choice_v4_pilot3,610825130bf4669d1b167efe,9,Quality of heat/AC system,-1,Very Good,Very Bad,direction,4763,,,,,2022-06-02 13:24:17,13861
60ee4077cdf4f24a1c607783,ma_choice_v4_pilot3,60ee4077cdf4f24a1c607783,8,Quality of kitchen,-1,Good,Very Bad,direction,3956,,,,,2022-06-02 13:24:22,13862
610825130bf4669d1b167efe,ma_choice_v4_pilot3,610825130bf4669d1b167efe,1,Closeness to cafes/restaurants,-1,10 min away,30 min away,direction,1791,,,,,2022-06-02 13:24:22,13863
610825130bf4669d1b167efe,ma_choice_v4_pilot3,610825130bf4669d1b167efe,10,Amount of traffic,-1,Very Little,A Lot,direction,2038,,,,,2022-06-02 13:24:28,13864
60ee4077cdf4f24a1c607783,ma_choice_v4_pilot3,60ee4077cdf4f24a1c607783,9,Quality of heat/AC system,-1,Very Good,Very Bad,direction,3991,,,,,2022-06-02 13:24:34,13865
610825130bf4669d1b167efe,ma_choice_v4_pilot3,610825130bf4669d1b167efe,2,Closeness to public transportation,-1,10 min away,30 min away,direction,2247,,,,,2022-06-02 13:24:35,13866
610825130bf4669d1b167efe,ma_choice_v4_pilot3,610825130bf4669d1b167efe,5,Amount of natural light,-1,A Lot,Very Little,direction,1375,,,,,2022-06-02 13:24:39,13867
53987712fdf99b68e3a45021,ma_choice_v4_pilot3,53987712fdf99b68e3a45021,0,Quality of heat/AC system,1,,,ew_att_rating,19256,,,,,2022-06-02 13:24:41,13868
53987712fdf99b68e3a45021,ma_choice_v4_pilot3,53987712fdf99b68e3a45021,0,Quality of kitchen,1,,,ew_att_rating,19256,,,,,2022-06-02 13:24:41,13869
610825130bf4669d1b167efe,ma_choice_v4_pilot3,610825130bf4669d1b167efe,4,Reputation of closest school,-1,Very Good,Very Bad,direction,1690,,,,,2022-06-02 13:24:44,13870
60ee4077cdf4f24a1c607783,ma_choice_v4_pilot3,60ee4077cdf4f24a1c607783,0,Closeness to parks,-1,20 min away,30 min away,direction,5145,,,,,2022-06-02 13:24:46,13871
610825130bf4669d1b167efe,ma_choice_v4_pilot3,610825130bf4669d1b167efe,11,Size of home,-1,1800 square feet,600 square feet,direction,1821,,,,,2022-06-02 13:24:49,13872
60ee4077cdf4f24a1c607783,ma_choice_v4_pilot3,60ee4077cdf4f24a1c607783,6,Year building was built,-1,2020,1950,direction,4034,,,,,2022-06-02 13:24:56,13873
53987712fdf99b68e3a45021,ma_choice_v4_pilot3,53987712fdf99b68e3a45021,7,Size of yard,0,,,wad_att_rating,3231,,,,,2022-06-02 13:25:06,13874
53987712fdf99b68e3a45021,ma_choice_v4_pilot3,53987712fdf99b68e3a45021,0,Closeness to parks,0,,,wad_att_rating,2152,,,,,2022-06-02 13:25:08,13875
53987712fdf99b68e3a45021,ma_choice_v4_pilot3,53987712fdf99b68e3a45021,3,Noise pollution,0,,,wad_att_rating,1859,,,,,2022-06-02 13:25:10,13876
53987712fdf99b68e3a45021,ma_choice_v4_pilot3,53987712fdf99b68e3a45021,5,Amount of natural light,0,,,wad_att_rating,1962,,,,,2022-06-02 13:25:12,13877
53987712fdf99b68e3a45021,ma_choice_v4_pilot3,53987712fdf99b68e3a45021,2,Closeness to public transportation,0,,,wad_att_rating,1505,,,,,2022-06-02 13:25:13,13878
53987712fdf99b68e3a45021,ma_choice_v4_pilot3,53987712fdf99b68e3a45021,9,Quality of heat/AC system,50,,,wad_att_rating,3755,,,,,2022-06-02 13:25:17,13879
53987712fdf99b68e3a45021,ma_choice_v4_pilot3,53987712fdf99b68e3a45021,4,Reputation of closest school,0,,,wad_att_rating,2049,,,,,2022-06-02 13:25:19,13880
53987712fdf99b68e3a45021,ma_choice_v4_pilot3,53987712fdf99b68e3a45021,11,Size of home,0,,,wad_att_rating,1766,,,,,2022-06-02 13:25:21,13881
53987712fdf99b68e3a45021,ma_choice_v4_pilot3,53987712fdf99b68e3a45021,6,Year building was built,0,,,wad_att_rating,1693,,,,,2022-06-02 13:25:23,13882
53987712fdf99b68e3a45021,ma_choice_v4_pilot3,53987712fdf99b68e3a45021,1,Closeness to cafes/restaurants,0,,,wad_att_rating,1993,,,,,2022-06-02 13:25:25,13883
53987712fdf99b68e3a45021,ma_choice_v4_pilot3,53987712fdf99b68e3a45021,10,Amount of traffic,0,,,wad_att_rating,1542,,,,,2022-06-02 13:25:26,13884
53987712fdf99b68e3a45021,ma_choice_v4_pilot3,53987712fdf99b68e3a45021,8,Quality of kitchen,96,,,wad_att_rating,3257,,,,,2022-06-02 13:25:29,13885
5b15307351caaf0001228d9b,ma_choice_v4_pilot3,5b15307351caaf0001228d9b,2,Closeness to public transportation,-1,20 min away,30 min away,direction,3921,,,,,2022-06-02 13:25:40,13886
5b15307351caaf0001228d9b,ma_choice_v4_pilot3,5b15307351caaf0001228d9b,6,Year building was built,-1,2020,1950,direction,2242,,,,,2022-06-02 13:25:48,13887
5b15307351caaf0001228d9b,ma_choice_v4_pilot3,5b15307351caaf0001228d9b,8,Quality of kitchen,-1,Very Good,Very Bad,direction,1762,,,,,2022-06-02 13:25:54,13888
6101667971d68405d105698a,ma_choice_v4_pilot3,6101667971d68405d105698a,0,Closeness to parks,-1,10 min away,30 min away,direction,1805,,,,,2022-06-02 13:25:56,13889
5b15307351caaf0001228d9b,ma_choice_v4_pilot3,5b15307351caaf0001228d9b,4,Reputation of closest school,-1,Very Good,Very Bad,direction,1675,,,,,2022-06-02 13:26:00,13890
6101667971d68405d105698a,ma_choice_v4_pilot3,6101667971d68405d105698a,9,Quality of heat/AC system,-1,Very Good,Very Bad,direction,1686,,,,,2022-06-02 13:26:02,13891
5b15307351caaf0001228d9b,ma_choice_v4_pilot3,5b15307351caaf0001228d9b,11,Size of home,-1,1800 square feet,600 square feet,direction,2099,,,,,2022-06-02 13:26:06,13892
6101667971d68405d105698a,ma_choice_v4_pilot3,6101667971d68405d105698a,10,Amount of traffic,-1,Very Little,A Lot,direction,2230,,,,,2022-06-02 13:26:08,13893
5b15307351caaf0001228d9b,ma_choice_v4_pilot3,5b15307351caaf0001228d9b,9,Quality of heat/AC system,-1,Very Good,Very Bad,direction,2106,,,,,2022-06-02 13:26:11,13894
6101667971d68405d105698a,ma_choice_v4_pilot3,6101667971d68405d105698a,4,Reputation of closest school,-1,Very Good,Very Bad,direction,1750,,,,,2022-06-02 13:26:15,13895
5b15307351caaf0001228d9b,ma_choice_v4_pilot3,5b15307351caaf0001228d9b,1,Closeness to cafes/restaurants,-1,15 min away,30 min away,direction,3842,,,,,2022-06-02 13:26:19,13896
6101667971d68405d105698a,ma_choice_v4_pilot3,6101667971d68405d105698a,2,Closeness to public transportation,-1,10 min away,30 min away,direction,1533,,,,,2022-06-02 13:26:21,13897
5b15307351caaf0001228d9b,ma_choice_v4_pilot3,5b15307351caaf0001228d9b,5,Amount of natural light,-1,A Moderate Amount,Very Little,direction,1697,,,,,2022-06-02 13:26:24,13898
6101667971d68405d105698a,ma_choice_v4_pilot3,6101667971d68405d105698a,11,Size of home,-1,1800 square feet,600 square feet,direction,2006,,,,,2022-06-02 13:26:28,13899
5b15307351caaf0001228d9b,ma_choice_v4_pilot3,5b15307351caaf0001228d9b,3,Noise pollution,-1,Very Low,Very High,direction,2945,,,,,2022-06-02 13:26:30,13900
6101667971d68405d105698a,ma_choice_v4_pilot3,6101667971d68405d105698a,7,Size of yard,-1,600 square feet,0 square feet,direction,1373,,,,,2022-06-02 13:26:34,13901
5b15307351caaf0001228d9b,ma_choice_v4_pilot3,5b15307351caaf0001228d9b,10,Amount of traffic,-1,Very Little,A Lot,direction,1581,,,,,2022-06-02 13:26:35,13902
5b15307351caaf0001228d9b,ma_choice_v4_pilot3,5b15307351caaf0001228d9b,7,Size of yard,-1,600 square feet,0 square feet,direction,1417,,,,,2022-06-02 13:26:40,13903
53987712fdf99b68e3a45021,ma_choice_v4_pilot3,53987712fdf99b68e3a45021,5,Amount of natural light,-1,A Lot,Very Little,direction,1780,,,,,2022-06-02 13:26:40,13904
6101667971d68405d105698a,ma_choice_v4_pilot3,6101667971d68405d105698a,5,Amount of natural light,-1,A Lot,Very Little,direction,2014,,,,,2022-06-02 13:26:43,13905
5b15307351caaf0001228d9b,ma_choice_v4_pilot3,5b15307351caaf0001228d9b,0,Closeness to parks,-1,10 min away,30 min away,direction,1956,,,,,2022-06-02 13:26:46,13906
6101667971d68405d105698a,ma_choice_v4_pilot3,6101667971d68405d105698a,1,Closeness to cafes/restaurants,-1,10 min away,30 min away,direction,1622,,,,,2022-06-02 13:26:47,13907
53987712fdf99b68e3a45021,ma_choice_v4_pilot3,53987712fdf99b68e3a45021,10,Amount of traffic,-1,Very Little,A Lot,direction,2207,,,,,2022-06-02 13:26:51,13908
53987712fdf99b68e3a45021,ma_choice_v4_pilot3,53987712fdf99b68e3a45021,6,Year building was built,-1,2020,1950,direction,1627,,,,,2022-06-02 13:26:59,13909
53987712fdf99b68e3a45021,ma_choice_v4_pilot3,53987712fdf99b68e3a45021,0,Closeness to parks,-1,10 min away,30 min away,direction,1506,,,,,2022-06-02 13:27:04,13910
6101667971d68405d105698a,ma_choice_v4_pilot3,6101667971d68405d105698a,6,Year building was built,-1,2020,1950,direction,1325,,,,,2022-06-02 13:27:05,13911
6101667971d68405d105698a,ma_choice_v4_pilot3,6101667971d68405d105698a,3,Noise pollution,-1,Very Low,Very High,direction,1638,,,,,2022-06-02 13:27:11,13912
53987712fdf99b68e3a45021,ma_choice_v4_pilot3,53987712fdf99b68e3a45021,11,Size of home,-1,1800 square feet,600 square feet,direction,2068,,,,,2022-06-02 13:27:14,13913
6101667971d68405d105698a,ma_choice_v4_pilot3,6101667971d68405d105698a,8,Quality of kitchen,-1,Very Good,Very Bad,direction,1957,,,,,2022-06-02 13:27:16,13914
53987712fdf99b68e3a45021,ma_choice_v4_pilot3,53987712fdf99b68e3a45021,7,Size of yard,-1,300 square feet,0 square feet,direction,4286,,,,,2022-06-02 13:27:25,13915
53987712fdf99b68e3a45021,ma_choice_v4_pilot3,53987712fdf99b68e3a45021,8,Quality of kitchen,-1,Very Good,Very Bad,direction,957,,,,,2022-06-02 13:27:31,13916
53987712fdf99b68e3a45021,ma_choice_v4_pilot3,53987712fdf99b68e3a45021,4,Reputation of closest school,-1,Very Good,Very Bad,direction,1230,,,,,2022-06-02 13:27:34,13917
53987712fdf99b68e3a45021,ma_choice_v4_pilot3,53987712fdf99b68e3a45021,1,Closeness to cafes/restaurants,-1,10 min away,30 min away,direction,1270,,,,,2022-06-02 13:27:38,13918
53987712fdf99b68e3a45021,ma_choice_v4_pilot3,53987712fdf99b68e3a45021,2,Closeness to public transportation,-1,10 min away,30 min away,direction,1108,,,,,2022-06-02 13:27:41,13919
53987712fdf99b68e3a45021,ma_choice_v4_pilot3,53987712fdf99b68e3a45021,3,Noise pollution,-1,Very Low,Very High,direction,1127,,,,,2022-06-02 13:27:45,13920
53987712fdf99b68e3a45021,ma_choice_v4_pilot3,53987712fdf99b68e3a45021,9,Quality of heat/AC system,-1,Very Good,Very Bad,direction,1038,,,,,2022-06-02 13:27:50,13921
5e2d96d3bc554937d1b3917a,ma_choice_v4_pilot3,5e2d96d3bc554937d1b3917a,5,Amount of natural light,56,,,wad_att_rating,11165,,,,,2022-06-02 13:28:53,13922
5e2d96d3bc554937d1b3917a,ma_choice_v4_pilot3,5e2d96d3bc554937d1b3917a,6,Year building was built,2,,,wad_att_rating,3821,,,,,2022-06-02 13:28:56,13923
5e2d96d3bc554937d1b3917a,ma_choice_v4_pilot3,5e2d96d3bc554937d1b3917a,3,Noise pollution,89,,,wad_att_rating,5462,,,,,2022-06-02 13:29:02,13924
5e2d96d3bc554937d1b3917a,ma_choice_v4_pilot3,5e2d96d3bc554937d1b3917a,1,Closeness to cafes/restaurants,3,,,wad_att_rating,4853,,,,,2022-06-02 13:29:07,13925
608ca27f0fc273d395eb58bd,ma_choice_v4_pilot3,608ca27f0fc273d395eb58bd,7,Size of yard,-1,600 square feet,0 square feet,direction,5040,,,,,2022-06-02 13:29:12,13926
5e2d96d3bc554937d1b3917a,ma_choice_v4_pilot3,5e2d96d3bc554937d1b3917a,7,Size of yard,67,,,wad_att_rating,6614,,,,,2022-06-02 13:29:13,13927
5e2d96d3bc554937d1b3917a,ma_choice_v4_pilot3,5e2d96d3bc554937d1b3917a,2,Closeness to public transportation,1,,,wad_att_rating,2974,,,,,2022-06-02 13:29:16,13928
5e2d96d3bc554937d1b3917a,ma_choice_v4_pilot3,5e2d96d3bc554937d1b3917a,11,Size of home,49,,,wad_att_rating,3237,,,,,2022-06-02 13:29:20,13929
608ca27f0fc273d395eb58bd,ma_choice_v4_pilot3,608ca27f0fc273d395eb58bd,1,Closeness to cafes/restaurants,-1,10 min away,30 min away,direction,3232,,,,,2022-06-02 13:29:20,13930
5e2d96d3bc554937d1b3917a,ma_choice_v4_pilot3,5e2d96d3bc554937d1b3917a,9,Quality of heat/AC system,2,,,wad_att_rating,2774,,,,,2022-06-02 13:29:22,13931
5e2d96d3bc554937d1b3917a,ma_choice_v4_pilot3,5e2d96d3bc554937d1b3917a,4,Reputation of closest school,1,,,wad_att_rating,4613,,,,,2022-06-02 13:29:27,13932
608ca27f0fc273d395eb58bd,ma_choice_v4_pilot3,608ca27f0fc273d395eb58bd,6,Year building was built,-1,2020,1950,direction,2320,,,,,2022-06-02 13:29:27,13933
5f91a6bf59acc003a749718a,ma_choice_v4_pilot3,5f91a6bf59acc003a749718a,10,Amount of traffic,27,,,wad_att_rating,11991,,,,,2022-06-02 13:29:28,13934
5e2d96d3bc554937d1b3917a,ma_choice_v4_pilot3,5e2d96d3bc554937d1b3917a,10,Amount of traffic,54,,,wad_att_rating,4341,,,,,2022-06-02 13:29:31,13935
608ca27f0fc273d395eb58bd,ma_choice_v4_pilot3,608ca27f0fc273d395eb58bd,8,Quality of kitchen,-1,Very Good,Very Bad,direction,3333,,,,,2022-06-02 13:29:34,13936
5e2d96d3bc554937d1b3917a,ma_choice_v4_pilot3,5e2d96d3bc554937d1b3917a,8,Quality of kitchen,8,,,wad_att_rating,4910,,,,,2022-06-02 13:29:36,13937
5e2d96d3bc554937d1b3917a,ma_choice_v4_pilot3,5e2d96d3bc554937d1b3917a,0,Closeness to parks,2,,,wad_att_rating,2925,,,,,2022-06-02 13:29:39,13938
608ca27f0fc273d395eb58bd,ma_choice_v4_pilot3,608ca27f0fc273d395eb58bd,0,Closeness to parks,-1,10 min away,30 min away,direction,3433,,,,,2022-06-02 13:29:42,13939
608ca27f0fc273d395eb58bd,ma_choice_v4_pilot3,608ca27f0fc273d395eb58bd,10,Amount of traffic,-1,Very Little,A Lot,direction,2581,,,,,2022-06-02 13:29:51,13940
5e2d96d3bc554937d1b3917a,ma_choice_v4_pilot3,5e2d96d3bc554937d1b3917a,0,Noise pollution,1,,,lex_att_rating,6782,,,,,2022-06-02 13:29:56,13941
608ca27f0fc273d395eb58bd,ma_choice_v4_pilot3,608ca27f0fc273d395eb58bd,5,Amount of natural light,-1,A Lot,Very Little,direction,2914,,,,,2022-06-02 13:29:58,13942
61151fdceebe67102a0983ad,ma_choice_v4_pilot3,61151fdceebe67102a0983ad,9,Quality of heat/AC system,-1,Very Good,Very Bad,direction,3666,,,,,2022-06-02 13:30:06,13943
608ca27f0fc273d395eb58bd,ma_choice_v4_pilot3,608ca27f0fc273d395eb58bd,4,Reputation of closest school,-1,Very Good,Very Bad,direction,3194,,,,,2022-06-02 13:30:09,13944
61151fdceebe67102a0983ad,ma_choice_v4_pilot3,61151fdceebe67102a0983ad,8,Quality of kitchen,-1,Good,Very Bad,direction,3287,,,,,2022-06-02 13:30:16,13945
608ca27f0fc273d395eb58bd,ma_choice_v4_pilot3,608ca27f0fc273d395eb58bd,3,Noise pollution,-1,Very Low,Very High,direction,3702,,,,,2022-06-02 13:30:16,13946
5e2d96d3bc554937d1b3917a,ma_choice_v4_pilot3,5e2d96d3bc554937d1b3917a,0,Size of home,1,,,ew_att_rating,16734,,,,,2022-06-02 13:30:20,13947
5e2d96d3bc554937d1b3917a,ma_choice_v4_pilot3,5e2d96d3bc554937d1b3917a,0,Noise pollution,1,,,ew_att_rating,16734,,,,,2022-06-02 13:30:20,13948
5e2d96d3bc554937d1b3917a,ma_choice_v4_pilot3,5e2d96d3bc554937d1b3917a,0,Amount of traffic,1,,,ew_att_rating,16734,,,,,2022-06-02 13:30:20,13949
5e2d96d3bc554937d1b3917a,ma_choice_v4_pilot3,5e2d96d3bc554937d1b3917a,0,Size of yard,1,,,ew_att_rating,16734,,,,,2022-06-02 13:30:20,13950
5e2d96d3bc554937d1b3917a,ma_choice_v4_pilot3,5e2d96d3bc554937d1b3917a,0,Amount of natural light,1,,,ew_att_rating,16734,,,,,2022-06-02 13:30:20,13951
61151fdceebe67102a0983ad,ma_choice_v4_pilot3,61151fdceebe67102a0983ad,4,Reputation of closest school,-1,Very Good,Very Bad,direction,1798,,,,,2022-06-02 13:30:21,13952
608ca27f0fc273d395eb58bd,ma_choice_v4_pilot3,608ca27f0fc273d395eb58bd,2,Closeness to public transportation,-1,10 min away,30 min away,direction,2945,,,,,2022-06-02 13:30:24,13953
61151fdceebe67102a0983ad,ma_choice_v4_pilot3,61151fdceebe67102a0983ad,1,Closeness to cafes/restaurants,-1,10 min away,30 min away,direction,2564,,,,,2022-06-02 13:30:29,13954
608ca27f0fc273d395eb58bd,ma_choice_v4_pilot3,608ca27f0fc273d395eb58bd,11,Size of home,-1,1800 square feet,600 square feet,direction,2831,,,,,2022-06-02 13:30:30,13955
5c6ae4c31b9d0e000190bacc,ma_choice_v4_pilot3,5c6ae4c31b9d0e000190bacc,0,Noise pollution,1,,,lex_att_rating,8094,,,,,2022-06-02 13:30:32,13956
608ca27f0fc273d395eb58bd,ma_choice_v4_pilot3,608ca27f0fc273d395eb58bd,9,Quality of heat/AC system,-1,Very Good,Very Bad,direction,2969,,,,,2022-06-02 13:30:36,13957
61151fdceebe67102a0983ad,ma_choice_v4_pilot3,61151fdceebe67102a0983ad,0,Closeness to parks,-1,10 min away,30 min away,direction,2292,,,,,2022-06-02 13:30:38,13958
6082c37809793130ca4b3f0e,ma_choice_v4_pilot3,6082c37809793130ca4b3f0e,0,Reputation of closest school,1,,,ew_att_rating,5796,,,,,2022-06-02 13:30:43,13959
61151fdceebe67102a0983ad,ma_choice_v4_pilot3,61151fdceebe67102a0983ad,7,Size of yard,-1,600 square feet,0 square feet,direction,1558,,,,,2022-06-02 13:30:43,13960
5f91a6bf59acc003a749718a,ma_choice_v4_pilot3,5f91a6bf59acc003a749718a,9,Quality of heat/AC system,46,,,wad_att_rating,75748,,,,,2022-06-02 13:30:45,13961
61151fdceebe67102a0983ad,ma_choice_v4_pilot3,61151fdceebe67102a0983ad,2,Closeness to public transportation,-1,10 min away,30 min away,direction,2340,,,,,2022-06-02 13:30:52,13962
5f91a6bf59acc003a749718a,ma_choice_v4_pilot3,5f91a6bf59acc003a749718a,1,Closeness to cafes/restaurants,39,,,wad_att_rating,9308,,,,,2022-06-02 13:30:53,13963
6082c37809793130ca4b3f0e,ma_choice_v4_pilot3,6082c37809793130ca4b3f0e,0,Reputation of closest school,1,,,lex_att_rating,6533,,,,,2022-06-02 13:30:57,13964
61151fdceebe67102a0983ad,ma_choice_v4_pilot3,61151fdceebe67102a0983ad,11,Size of home,-1,1800 square feet,600 square feet,direction,1632,,,,,2022-06-02 13:30:58,13965
