subject,version,assignmentId,trial,practice,opt1_id,opt2_id,attributes,opt1_values,opt2_values,choice,rt,stamp,id
5dd6861c070fdc6179d8003e,ma_choice_v3_pilot3,5dd6861c070fdc6179d8003e,0,1,-1,-1,"Reputation of closest school,Proximity to parks,Noise pollution,Amount of traffic,Year building was built,Quality of heat/AC system,Size of yard,Amount of crime in neighborhood,Proximity to public transportation,Amount of natural light,Proximity to cafes/restaurants,Size of home","Good,10 min away,Very Low,A Little,1959,Moderate,None,Very Low,5 min away,A Moderate Amount,25 min away,1200 square feet","Moderate,5 min away,Low,A Lot,2007,Good,Very Large,High,20 min away,Very Little,5 min away,800 square feet",0,16286,2022-01-25 23:34:10,9979
5dd6861c070fdc6179d8003e,ma_choice_v3_pilot3,5dd6861c070fdc6179d8003e,1,1,-1,-1,"Amount of crime in neighborhood,Proximity to public transportation,Amount of traffic,Year building was built,Size of yard,Proximity to cafes/restaurants,Amount of natural light,Size of home,Noise pollution,Proximity to parks,Quality of heat/AC system,Reputation of closest school","Very Low,10 min away,A Little,2009,Large,15 min away,Very Little,1200 square feet,Low,5 min away,Very Good,Moderate","Very High,15 min away,Very Little,1967,Small,25 min away,A Moderate Amount,1000 square feet,High,20 min away,Moderate,Good",0,12429,2022-01-25 23:34:23,9980
5dd6861c070fdc6179d8003e,ma_choice_v3_pilot3,5dd6861c070fdc6179d8003e,2,1,-1,-1,"Proximity to cafes/restaurants,Amount of crime in neighborhood,Noise pollution,Size of yard,Quality of heat/AC system,Size of home,Proximity to parks,Proximity to public transportation,Year building was built,Amount of natural light,Reputation of closest school,Amount of traffic","5 min away,Moderate,Very High,Large,Good,1600 square feet,10 min away,25 min away,1960,A Little,Bad,A Moderate Amount","20 min away,Very High,Low,Small,Very Good,800 square feet,25 min away,10 min away,1986,Very Little,Very Good,A Lot",0,14353,2022-01-25 23:34:39,9981
5dd6861c070fdc6179d8003e,ma_choice_v3_pilot3,5dd6861c070fdc6179d8003e,3,1,-1,-1,"Proximity to parks,Amount of natural light,Proximity to cafes/restaurants,Quality of heat/AC system,Noise pollution,Amount of crime in neighborhood,Proximity to public transportation,Size of home,Year building was built,Reputation of closest school,Size of yard,Amount of traffic","10 min away,A Moderate Amount,20 min away,Very Good,Very High,Very High,20 min away,1400 square feet,2018,Moderate,None,A Little","20 min away,A Lot,15 min away,Bad,Moderate,Very Low,5 min away,800 square feet,1996,Very Bad,Very Large,A Lot",1,10114,2022-01-25 23:34:50,9982
5dd6861c070fdc6179d8003e,ma_choice_v3_pilot3,5dd6861c070fdc6179d8003e,4,1,-1,-1,"Size of yard,Size of home,Proximity to parks,Amount of crime in neighborhood,Noise pollution,Amount of traffic,Reputation of closest school,Amount of natural light,Year building was built,Proximity to public transportation,Proximity to cafes/restaurants,Quality of heat/AC system","Small,1400 square feet,20 min away,Low,Low,A Moderate Amount,Very Good,A Little,1987,20 min away,25 min away,Good","None,1800 square feet,15 min away,Very Low,Very Low,A Little,Good,A Lot,2013,10 min away,20 min away,Moderate",1,16448,2022-01-25 23:35:07,9983
5dd6861c070fdc6179d8003e,ma_choice_v3_pilot3,5dd6861c070fdc6179d8003e,5,1,-1,-1,"Reputation of closest school,Proximity to parks,Noise pollution,Proximity to cafes/restaurants,Amount of natural light,Quality of heat/AC system,Amount of traffic,Size of yard,Size of home,Proximity to public transportation,Amount of crime in neighborhood,Year building was built","Very Bad,15 min away,Low,15 min away,A Lot,Very Bad,A Moderate Amount,Small,1000 square feet,20 min away,Very High,1952","Very Good,20 min away,Very High,10 min away,A Little,Moderate,A Little,Medium,1500 square feet,10 min away,High,1979",1,14653,2022-01-25 23:35:23,9984
5c112b5d8124060001bfa35f,ma_choice_v3_pilot3,5c112b5d8124060001bfa35f,0,1,-1,-1,"Proximity to parks,Proximity to cafes/restaurants,Amount of traffic,Proximity to public transportation,Amount of crime in neighborhood,Amount of natural light,Size of yard,Noise pollution,Reputation of closest school,Quality of heat/AC system,Year building was built,Size of home","10 min away,15 min away,A Lot,20 min away,High,A Little,Large,Low,Good,Very Good,2004,1800 square feet","5 min away,25 min away,Very Little,5 min away,Very High,A Moderate Amount,None,Moderate,Very Bad,Moderate,1973,1200 square feet",0,12318,2022-01-25 23:35:34,9985
5dd6861c070fdc6179d8003e,ma_choice_v3_pilot3,5dd6861c070fdc6179d8003e,6,1,-1,-1,"Proximity to cafes/restaurants,Amount of natural light,Quality of heat/AC system,Size of yard,Reputation of closest school,Year building was built,Amount of crime in neighborhood,Amount of traffic,Proximity to public transportation,Proximity to parks,Size of home,Noise pollution","25 min away,A Lot,Very Bad,Very Large,Very Bad,2013,Low,A Little,5 min away,25 min away,1200 square feet,Low","20 min away,A Moderate Amount,Bad,Medium,Moderate,1979,Very High,A Lot,10 min away,5 min away,1400 square feet,Moderate",0,10022,2022-01-25 23:35:34,9986
5c112b5d8124060001bfa35f,ma_choice_v3_pilot3,5c112b5d8124060001bfa35f,1,1,-1,-1,"Quality of heat/AC system,Noise pollution,Reputation of closest school,Amount of crime in neighborhood,Size of yard,Proximity to parks,Amount of natural light,Proximity to cafes/restaurants,Proximity to public transportation,Size of home,Amount of traffic,Year building was built","Very Good,Moderate,Very Bad,Moderate,Large,15 min away,A Little,20 min away,20 min away,800 square feet,A Little,1954","Moderate,Low,Bad,Very High,Small,10 min away,A Lot,10 min away,25 min away,1100 square feet,Very Little,1991",0,9630,2022-01-25 23:35:44,9987
5dd6861c070fdc6179d8003e,ma_choice_v3_pilot3,5dd6861c070fdc6179d8003e,7,1,-1,-1,"Size of yard,Proximity to cafes/restaurants,Quality of heat/AC system,Amount of crime in neighborhood,Size of home,Reputation of closest school,Amount of traffic,Proximity to public transportation,Year building was built,Proximity to parks,Noise pollution,Amount of natural light","Large,20 min away,Very Bad,High,1500 square feet,Bad,A Little,25 min away,1956,15 min away,Moderate,A Lot","Very Large,15 min away,Bad,Very High,600 square feet,Moderate,A Moderate Amount,20 min away,1974,5 min away,Very Low,A Moderate Amount",0,11216,2022-01-25 23:35:46,9988
5c112b5d8124060001bfa35f,ma_choice_v3_pilot3,5c112b5d8124060001bfa35f,2,1,-1,-1,"Proximity to parks,Proximity to public transportation,Proximity to cafes/restaurants,Quality of heat/AC system,Reputation of closest school,Size of yard,Amount of natural light,Amount of crime in neighborhood,Year building was built,Noise pollution,Size of home,Amount of traffic","5 min away,5 min away,25 min away,Very Bad,Good,Very Large,A Little,High,1958,Very Low,900 square feet,A Little","25 min away,15 min away,15 min away,Very Good,Moderate,None,A Lot,Moderate,2019,Very High,1500 square feet,A Moderate Amount",1,11241,2022-01-25 23:35:57,9989
5dd6861c070fdc6179d8003e,ma_choice_v3_pilot3,5dd6861c070fdc6179d8003e,8,1,-1,-1,"Noise pollution,Year building was built,Amount of crime in neighborhood,Reputation of closest school,Amount of natural light,Size of home,Proximity to parks,Quality of heat/AC system,Amount of traffic,Proximity to public transportation,Proximity to cafes/restaurants,Size of yard","Moderate,1986,High,Very Good,A Lot,1700 square feet,5 min away,Good,A Moderate Amount,25 min away,25 min away,Small","Very High,1972,Very High,Good,A Little,1000 square feet,10 min away,Bad,A Little,20 min away,10 min away,None",0,10593,2022-01-25 23:35:58,9990
5c112b5d8124060001bfa35f,ma_choice_v3_pilot3,5c112b5d8124060001bfa35f,3,1,-1,-1,"Amount of traffic,Year building was built,Size of home,Amount of natural light,Quality of heat/AC system,Reputation of closest school,Proximity to public transportation,Amount of crime in neighborhood,Size of yard,Noise pollution,Proximity to cafes/restaurants,Proximity to parks","Very Little,1966,800 square feet,Very Little,Very Bad,Very Bad,10 min away,Very High,Small,Low,25 min away,20 min away","A Little,1989,1100 square feet,A Little,Moderate,Very Good,20 min away,Low,Very Large,Very High,20 min away,5 min away",1,8519,2022-01-25 23:36:06,9991
5dd6861c070fdc6179d8003e,ma_choice_v3_pilot3,5dd6861c070fdc6179d8003e,9,1,-1,-1,"Amount of crime in neighborhood,Size of home,Amount of natural light,Amount of traffic,Size of yard,Noise pollution,Proximity to public transportation,Reputation of closest school,Proximity to parks,Proximity to cafes/restaurants,Year building was built,Quality of heat/AC system","Low,1400 square feet,A Lot,Very Little,Very Large,Very High,20 min away,Bad,20 min away,15 min away,1969,Very Bad","Very High,1300 square feet,A Little,A Lot,Small,Moderate,5 min away,Very Good,15 min away,10 min away,1955,Bad",1,15518,2022-01-25 23:36:15,9992
5c112b5d8124060001bfa35f,ma_choice_v3_pilot3,5c112b5d8124060001bfa35f,4,1,-1,-1,"Amount of crime in neighborhood,Noise pollution,Amount of natural light,Proximity to parks,Year building was built,Proximity to cafes/restaurants,Amount of traffic,Quality of heat/AC system,Size of home,Reputation of closest school,Size of yard,Proximity to public transportation","Low,Moderate,Very Little,5 min away,1959,25 min away,A Lot,Very Good,1600 square feet,Very Bad,Medium,15 min away","Very High,Low,A Little,15 min away,1981,20 min away,A Little,Moderate,1300 square feet,Moderate,Large,10 min away",0,8241,2022-01-25 23:36:15,9993
5c112b5d8124060001bfa35f,ma_choice_v3_pilot3,5c112b5d8124060001bfa35f,5,1,-1,-1,"Size of home,Amount of crime in neighborhood,Reputation of closest school,Noise pollution,Quality of heat/AC system,Year building was built,Proximity to cafes/restaurants,Size of yard,Amount of natural light,Proximity to public transportation,Proximity to parks,Amount of traffic","1200 square feet,High,Bad,High,Bad,1968,10 min away,None,A Moderate Amount,25 min away,5 min away,A Lot","800 square feet,Low,Very Good,Very Low,Moderate,1989,5 min away,Medium,A Little,10 min away,15 min away,A Moderate Amount",1,7796,2022-01-25 23:36:24,9994
5c112b5d8124060001bfa35f,ma_choice_v3_pilot3,5c112b5d8124060001bfa35f,6,1,-1,-1,"Noise pollution,Proximity to public transportation,Size of yard,Proximity to parks,Quality of heat/AC system,Amount of traffic,Year building was built,Amount of crime in neighborhood,Proximity to cafes/restaurants,Size of home,Reputation of closest school,Amount of natural light","Very High,10 min away,Small,5 min away,Moderate,A Little,2006,Very High,15 min away,1700 square feet,Very Bad,A Lot","Low,25 min away,Large,20 min away,Bad,A Lot,1970,High,20 min away,1500 square feet,Bad,Very Little",1,8171,2022-01-25 23:36:33,9995
5dd6861c070fdc6179d8003e,ma_choice_v3_pilot3,5dd6861c070fdc6179d8003e,0,0,-1,-1,"Proximity to parks,Proximity to public transportation,Quality of heat/AC system,Year building was built,Noise pollution,Size of yard,Amount of crime in neighborhood,Size of home,Proximity to cafes/restaurants,Amount of natural light,Reputation of closest school,Amount of traffic","10 min away,20 min away,Good,1952,Low,Large,Moderate,1500 square feet,20 min away,Very Little,Very Good,A Moderate Amount","25 min away,10 min away,Bad,2015,High,None,Very High,1100 square feet,15 min away,A Lot,Good,Very Little",0,13839,2022-01-25 23:36:41,9996
5c112b5d8124060001bfa35f,ma_choice_v3_pilot3,5c112b5d8124060001bfa35f,7,1,-1,-1,"Reputation of closest school,Proximity to parks,Amount of crime in neighborhood,Noise pollution,Proximity to cafes/restaurants,Amount of traffic,Amount of natural light,Size of yard,Quality of heat/AC system,Year building was built,Proximity to public transportation,Size of home","Moderate,20 min away,Moderate,High,25 min away,A Lot,A Little,Small,Very Good,1984,15 min away,1600 square feet","Very Bad,10 min away,High,Very High,5 min away,A Little,A Moderate Amount,None,Very Bad,1974,25 min away,1400 square feet",0,7642,2022-01-25 23:36:42,9997
5c112b5d8124060001bfa35f,ma_choice_v3_pilot3,5c112b5d8124060001bfa35f,8,1,-1,-1,"Year building was built,Proximity to public transportation,Reputation of closest school,Amount of natural light,Size of yard,Quality of heat/AC system,Amount of crime in neighborhood,Size of home,Amount of traffic,Proximity to cafes/restaurants,Noise pollution,Proximity to parks","1955,10 min away,Very Good,A Lot,Medium,Very Bad,Very High,1000 square feet,A Lot,15 min away,Very Low,5 min away","1994,25 min away,Good,A Little,None,Moderate,High,1700 square feet,A Little,25 min away,Moderate,10 min away",1,7836,2022-01-25 23:36:51,9998
5dd6861c070fdc6179d8003e,ma_choice_v3_pilot3,5dd6861c070fdc6179d8003e,1,0,-1,-1,"Quality of heat/AC system,Noise pollution,Amount of natural light,Size of home,Amount of crime in neighborhood,Size of yard,Year building was built,Proximity to parks,Reputation of closest school,Proximity to cafes/restaurants,Amount of traffic,Proximity to public transportation","Bad,Low,A Lot,1500 square feet,Very High,Small,1994,10 min away,Good,20 min away,A Little,15 min away","Very Bad,Moderate,A Little,1000 square feet,Moderate,Very Large,1973,5 min away,Very Bad,15 min away,Very Little,10 min away",1,15465,2022-01-25 23:36:58,9999
5c112b5d8124060001bfa35f,ma_choice_v3_pilot3,5c112b5d8124060001bfa35f,9,1,-1,-1,"Size of yard,Reputation of closest school,Amount of traffic,Amount of crime in neighborhood,Size of home,Proximity to cafes/restaurants,Year building was built,Proximity to public transportation,Amount of natural light,Quality of heat/AC system,Noise pollution,Proximity to parks","Medium,Moderate,A Moderate Amount,Very High,700 square feet,20 min away,1991,25 min away,A Moderate Amount,Moderate,Moderate,5 min away","None,Very Good,A Lot,Very Low,1700 square feet,15 min away,2013,15 min away,Very Little,Very Good,Low,20 min away",1,9247,2022-01-25 23:37:01,10000
5dd6861c070fdc6179d8003e,ma_choice_v3_pilot3,5dd6861c070fdc6179d8003e,2,0,-1,-1,"Noise pollution,Proximity to cafes/restaurants,Amount of natural light,Proximity to parks,Proximity to public transportation,Size of home,Year building was built,Reputation of closest school,Quality of heat/AC system,Amount of crime in neighborhood,Amount of traffic,Size of yard","Very High,10 min away,A Lot,25 min away,5 min away,600 square feet,1965,Moderate,Moderate,Very High,A Moderate Amount,Medium","High,15 min away,Very Little,20 min away,20 min away,1600 square feet,1982,Good,Very Good,High,Very Little,Very Large",1,15869,2022-01-25 23:37:14,10001
5c112b5d8124060001bfa35f,ma_choice_v3_pilot3,5c112b5d8124060001bfa35f,0,0,-1,-1,"Size of yard,Reputation of closest school,Quality of heat/AC system,Proximity to public transportation,Proximity to parks,Amount of natural light,Size of home,Amount of traffic,Noise pollution,Year building was built,Proximity to cafes/restaurants,Amount of crime in neighborhood","Medium,Very Good,Moderate,20 min away,5 min away,A Lot,600 square feet,A Lot,High,1995,15 min away,Very Low","Large,Good,Bad,15 min away,10 min away,Very Little,1400 square feet,Very Little,Low,1964,25 min away,High",0,8312,2022-01-25 23:37:24,10002
5c112b5d8124060001bfa35f,ma_choice_v3_pilot3,5c112b5d8124060001bfa35f,1,0,-1,-1,"Amount of traffic,Quality of heat/AC system,Amount of crime in neighborhood,Proximity to cafes/restaurants,Proximity to parks,Amount of natural light,Proximity to public transportation,Reputation of closest school,Year building was built,Noise pollution,Size of yard,Size of home","A Little,Very Good,Very Low,20 min away,5 min away,A Moderate Amount,10 min away,Very Bad,1967,Very High,Small,1700 square feet","Very Little,Moderate,High,15 min away,15 min away,A Little,25 min away,Moderate,1955,Moderate,None,1500 square feet",0,8258,2022-01-25 23:37:33,10003
5c112b5d8124060001bfa35f,ma_choice_v3_pilot3,5c112b5d8124060001bfa35f,2,0,-1,-1,"Proximity to public transportation,Size of home,Proximity to parks,Year building was built,Quality of heat/AC system,Amount of traffic,Reputation of closest school,Size of yard,Noise pollution,Proximity to cafes/restaurants,Amount of crime in neighborhood,Amount of natural light","25 min away,1800 square feet,10 min away,1992,Moderate,Very Little,Very Bad,Very Large,Very High,5 min away,Moderate,A Little","15 min away,1500 square feet,15 min away,2015,Bad,A Lot,Bad,Small,High,20 min away,Low,Very Little",1,10999,2022-01-25 23:37:45,10004
5dd6861c070fdc6179d8003e,ma_choice_v3_pilot3,5dd6861c070fdc6179d8003e,3,0,-1,-1,"Amount of traffic,Proximity to public transportation,Year building was built,Proximity to parks,Proximity to cafes/restaurants,Size of yard,Amount of crime in neighborhood,Reputation of closest school,Amount of natural light,Quality of heat/AC system,Noise pollution,Size of home","A Lot,20 min away,1957,15 min away,15 min away,Large,Moderate,Moderate,A Moderate Amount,Very Good,Low,600 square feet","A Moderate Amount,5 min away,2009,25 min away,25 min away,Medium,Low,Bad,Very Little,Good,Very Low,1200 square feet",1,35991,2022-01-25 23:37:51,10005
5c112b5d8124060001bfa35f,ma_choice_v3_pilot3,5c112b5d8124060001bfa35f,3,0,-1,-1,"Size of yard,Noise pollution,Proximity to cafes/restaurants,Year building was built,Reputation of closest school,Proximity to public transportation,Amount of crime in neighborhood,Proximity to parks,Amount of natural light,Size of home,Amount of traffic,Quality of heat/AC system","Very Large,High,15 min away,1966,Good,15 min away,High,15 min away,A Moderate Amount,700 square feet,A Moderate Amount,Very Bad","Medium,Very Low,5 min away,2014,Very Bad,10 min away,Moderate,10 min away,A Lot,1700 square feet,Very Little,Moderate",1,9079,2022-01-25 23:37:55,10006
5dd6861c070fdc6179d8003e,ma_choice_v3_pilot3,5dd6861c070fdc6179d8003e,4,0,-1,-1,"Proximity to parks,Size of home,Year building was built,Size of yard,Reputation of closest school,Amount of natural light,Noise pollution,Proximity to cafes/restaurants,Amount of crime in neighborhood,Proximity to public transportation,Amount of traffic,Quality of heat/AC system","5 min away,1500 square feet,1967,Large,Very Good,A Little,Very Low,20 min away,Very Low,15 min away,A Moderate Amount,Very Good","25 min away,600 square feet,1988,Very Large,Bad,A Lot,Low,15 min away,Moderate,10 min away,A Lot,Moderate",0,8066,2022-01-25 23:38:01,10007
5c112b5d8124060001bfa35f,ma_choice_v3_pilot3,5c112b5d8124060001bfa35f,4,0,-1,-1,"Proximity to cafes/restaurants,Proximity to parks,Amount of crime in neighborhood,Year building was built,Size of yard,Reputation of closest school,Noise pollution,Amount of traffic,Size of home,Amount of natural light,Quality of heat/AC system,Proximity to public transportation","10 min away,15 min away,Very High,1981,Large,Good,Moderate,A Lot,1100 square feet,Very Little,Very Bad,20 min away","15 min away,5 min away,Low,1956,None,Very Good,Very High,A Little,1400 square feet,A Little,Very Good,15 min away",1,8588,2022-01-25 23:38:05,10008
5c112b5d8124060001bfa35f,ma_choice_v3_pilot3,5c112b5d8124060001bfa35f,5,0,-1,-1,"Year building was built,Amount of traffic,Noise pollution,Quality of heat/AC system,Proximity to public transportation,Reputation of closest school,Size of yard,Amount of natural light,Size of home,Proximity to parks,Amount of crime in neighborhood,Proximity to cafes/restaurants","2000,Very Little,Low,Very Bad,5 min away,Good,Very Large,Very Little,1200 square feet,15 min away,High,10 min away","1960,A Lot,Very High,Good,25 min away,Very Good,Large,A Lot,700 square feet,10 min away,Very Low,5 min away",1,7715,2022-01-25 23:38:14,10009
5dd6861c070fdc6179d8003e,ma_choice_v3_pilot3,5dd6861c070fdc6179d8003e,5,0,-1,-1,"Size of home,Amount of crime in neighborhood,Quality of heat/AC system,Amount of traffic,Reputation of closest school,Size of yard,Proximity to cafes/restaurants,Proximity to parks,Noise pollution,Proximity to public transportation,Year building was built,Amount of natural light","800 square feet,High,Very Good,Very Little,Good,Very Large,15 min away,5 min away,High,20 min away,1973,A Lot","1600 square feet,Low,Good,A Moderate Amount,Very Good,Large,5 min away,20 min away,Very Low,10 min away,2008,A Moderate Amount",1,12493,2022-01-25 23:38:14,10010
5dd73f496ca7e76e32b1aa16,ma_choice_v3_pilot3,5dd73f496ca7e76e32b1aa16,0,1,-1,-1,"Reputation of closest school,Noise pollution,Quality of heat/AC system,Amount of crime in neighborhood,Proximity to parks,Proximity to public transportation,Year building was built,Amount of natural light,Amount of traffic,Proximity to cafes/restaurants,Size of yard,Size of home","Good,High,Moderate,Low,25 min away,10 min away,2001,Very Little,Very Little,5 min away,Large,1200 square feet","Very Good,Very High,Bad,Very Low,20 min away,15 min away,1985,A Moderate Amount,A Moderate Amount,10 min away,Small,1600 square feet",0,26601,2022-01-25 23:38:20,10011
5c112b5d8124060001bfa35f,ma_choice_v3_pilot3,5c112b5d8124060001bfa35f,6,0,-1,-1,"Proximity to public transportation,Amount of natural light,Noise pollution,Reputation of closest school,Amount of traffic,Proximity to parks,Amount of crime in neighborhood,Size of home,Quality of heat/AC system,Year building was built,Proximity to cafes/restaurants,Size of yard","10 min away,A Moderate Amount,Moderate,Bad,Very Little,10 min away,High,800 square feet,Moderate,2006,5 min away,Large","20 min away,A Little,High,Good,A Little,20 min away,Very High,1800 square feet,Bad,1973,20 min away,Very Large",0,7648,2022-01-25 23:38:22,10012
5c112b5d8124060001bfa35f,ma_choice_v3_pilot3,5c112b5d8124060001bfa35f,7,0,-1,-1,"Size of yard,Amount of traffic,Amount of crime in neighborhood,Size of home,Proximity to parks,Proximity to cafes/restaurants,Proximity to public transportation,Reputation of closest school,Noise pollution,Year building was built,Quality of heat/AC system,Amount of natural light","Small,A Moderate Amount,Moderate,900 square feet,15 min away,25 min away,20 min away,Very Bad,Moderate,2006,Bad,Very Little","Medium,Very Little,Very Low,1200 square feet,5 min away,20 min away,15 min away,Bad,Very Low,1994,Good,A Lot",1,8377,2022-01-25 23:38:32,10013
5dd6861c070fdc6179d8003e,ma_choice_v3_pilot3,5dd6861c070fdc6179d8003e,6,0,-1,-1,"Proximity to cafes/restaurants,Quality of heat/AC system,Noise pollution,Year building was built,Proximity to public transportation,Amount of crime in neighborhood,Size of home,Reputation of closest school,Proximity to parks,Size of yard,Amount of traffic,Amount of natural light","10 min away,Very Good,Low,1981,5 min away,High,1300 square feet,Moderate,10 min away,None,A Moderate Amount,A Moderate Amount","5 min away,Good,High,2013,25 min away,Very High,800 square feet,Very Bad,25 min away,Very Large,Very Little,Very Little",0,14134,2022-01-25 23:38:33,10014
5dd73f496ca7e76e32b1aa16,ma_choice_v3_pilot3,5dd73f496ca7e76e32b1aa16,1,1,-1,-1,"Proximity to public transportation,Proximity to parks,Noise pollution,Amount of crime in neighborhood,Quality of heat/AC system,Year building was built,Amount of traffic,Size of home,Reputation of closest school,Proximity to cafes/restaurants,Size of yard,Amount of natural light","10 min away,25 min away,Low,Very Low,Bad,1950,A Little,800 square feet,Bad,25 min away,Medium,Very Little","15 min away,20 min away,Very High,Moderate,Good,2012,A Lot,1600 square feet,Good,10 min away,Large,A Lot",1,20578,2022-01-25 23:38:42,10015
5c112b5d8124060001bfa35f,ma_choice_v3_pilot3,5c112b5d8124060001bfa35f,8,0,-1,-1,"Size of home,Amount of natural light,Proximity to public transportation,Proximity to cafes/restaurants,Year building was built,Size of yard,Amount of crime in neighborhood,Quality of heat/AC system,Proximity to parks,Reputation of closest school,Noise pollution,Amount of traffic","800 square feet,A Little,20 min away,15 min away,2011,Medium,Moderate,Good,5 min away,Good,High,A Little","1100 square feet,Very Little,10 min away,25 min away,1963,Large,Low,Very Bad,10 min away,Bad,Moderate,Very Little",0,10385,2022-01-25 23:38:43,10016
5dd6861c070fdc6179d8003e,ma_choice_v3_pilot3,5dd6861c070fdc6179d8003e,7,0,-1,-1,"Amount of traffic,Proximity to cafes/restaurants,Amount of crime in neighborhood,Proximity to parks,Amount of natural light,Proximity to public transportation,Reputation of closest school,Year building was built,Quality of heat/AC system,Size of yard,Size of home,Noise pollution","A Moderate Amount,5 min away,Very High,15 min away,Very Little,15 min away,Very Bad,2012,Moderate,Small,900 square feet,Low","Very Little,15 min away,High,25 min away,A Little,20 min away,Good,1982,Very Good,Very Large,800 square feet,High",1,17421,2022-01-25 23:38:48,10017
5c112b5d8124060001bfa35f,ma_choice_v3_pilot3,5c112b5d8124060001bfa35f,9,0,-1,-1,"Noise pollution,Proximity to public transportation,Quality of heat/AC system,Amount of crime in neighborhood,Size of yard,Proximity to parks,Reputation of closest school,Size of home,Proximity to cafes/restaurants,Year building was built,Amount of natural light,Amount of traffic","Very High,25 min away,Very Good,Moderate,Small,15 min away,Very Good,1000 square feet,10 min away,2018,A Lot,A Lot","Low,5 min away,Good,Low,Medium,20 min away,Moderate,1700 square feet,15 min away,2006,A Moderate Amount,Very Little",1,10585,2022-01-25 23:38:55,10018
5dd6861c070fdc6179d8003e,ma_choice_v3_pilot3,5dd6861c070fdc6179d8003e,8,0,-1,-1,"Amount of traffic,Size of yard,Amount of crime in neighborhood,Proximity to cafes/restaurants,Size of home,Noise pollution,Proximity to public transportation,Year building was built,Quality of heat/AC system,Reputation of closest school,Amount of natural light,Proximity to parks","A Little,Small,Very High,10 min away,1100 square feet,Moderate,15 min away,2000,Good,Very Bad,A Little,25 min away","A Lot,Very Large,Very Low,5 min away,1700 square feet,Very High,20 min away,1987,Bad,Bad,A Lot,20 min away",1,7660,2022-01-25 23:38:56,10019
5c112b5d8124060001bfa35f,ma_choice_v3_pilot3,5c112b5d8124060001bfa35f,10,0,-1,-1,"Amount of natural light,Proximity to cafes/restaurants,Noise pollution,Year building was built,Amount of traffic,Size of yard,Size of home,Quality of heat/AC system,Amount of crime in neighborhood,Proximity to parks,Proximity to public transportation,Reputation of closest school","A Little,25 min away,Moderate,1974,Very Little,Small,1000 square feet,Bad,Very High,5 min away,5 min away,Bad","Very Little,10 min away,Very Low,1998,A Little,None,1200 square feet,Very Good,Very Low,25 min away,20 min away,Very Bad",1,7854,2022-01-25 23:39:04,10020
5dd73f496ca7e76e32b1aa16,ma_choice_v3_pilot3,5dd73f496ca7e76e32b1aa16,2,1,-1,-1,"Noise pollution,Amount of natural light,Size of yard,Year building was built,Size of home,Amount of crime in neighborhood,Quality of heat/AC system,Reputation of closest school,Amount of traffic,Proximity to public transportation,Proximity to parks,Proximity to cafes/restaurants","Very High,A Moderate Amount,Medium,2000,800 square feet,Very High,Moderate,Good,Very Little,25 min away,5 min away,20 min away","Moderate,A Lot,Small,1985,900 square feet,Moderate,Very Good,Very Good,A Little,5 min away,25 min away,25 min away",1,23732,2022-01-25 23:39:07,10021
5dd6861c070fdc6179d8003e,ma_choice_v3_pilot3,5dd6861c070fdc6179d8003e,9,0,-1,-1,"Reputation of closest school,Size of home,Proximity to parks,Amount of natural light,Quality of heat/AC system,Size of yard,Noise pollution,Proximity to public transportation,Proximity to cafes/restaurants,Year building was built,Amount of traffic,Amount of crime in neighborhood","Moderate,1300 square feet,10 min away,A Moderate Amount,Bad,Very Large,Low,5 min away,15 min away,1998,A Moderate Amount,Low","Bad,700 square feet,15 min away,A Lot,Good,None,Very Low,20 min away,25 min away,1956,Very Little,Very Low",0,13362,2022-01-25 23:39:11,10022
5c112b5d8124060001bfa35f,ma_choice_v3_pilot3,5c112b5d8124060001bfa35f,11,0,-1,-1,"Amount of natural light,Year building was built,Size of home,Noise pollution,Amount of crime in neighborhood,Proximity to parks,Proximity to cafes/restaurants,Proximity to public transportation,Quality of heat/AC system,Amount of traffic,Reputation of closest school,Size of yard","Very Little,1991,800 square feet,Very High,Very High,10 min away,20 min away,20 min away,Very Good,A Lot,Good,Large","A Lot,1951,1300 square feet,Very Low,High,25 min away,15 min away,5 min away,Moderate,A Moderate Amount,Bad,Medium",1,7912,2022-01-25 23:39:13,10023
5af5bcf9b4dfd600018fc68e,ma_choice_v3_pilot3,5af5bcf9b4dfd600018fc68e,0,1,-1,-1,"Amount of natural light,Quality of heat/AC system,Proximity to public transportation,Amount of traffic,Noise pollution,Size of yard,Year building was built,Reputation of closest school,Proximity to cafes/restaurants,Proximity to parks,Amount of crime in neighborhood,Size of home","Very Little,Very Good,5 min away,A Lot,Low,Very Large,1974,Very Good,5 min away,15 min away,High,1700 square feet","A Moderate Amount,Very Bad,10 min away,Very Little,High,None,2015,Moderate,10 min away,25 min away,Low,1200 square feet",1,24467,2022-01-25 23:39:20,10024
5c112b5d8124060001bfa35f,ma_choice_v3_pilot3,5c112b5d8124060001bfa35f,12,0,-1,-1,"Amount of traffic,Noise pollution,Proximity to parks,Proximity to public transportation,Amount of crime in neighborhood,Reputation of closest school,Size of home,Size of yard,Amount of natural light,Year building was built,Proximity to cafes/restaurants,Quality of heat/AC system","A Lot,High,5 min away,25 min away,Very Low,Very Good,1100 square feet,None,A Little,1999,25 min away,Very Bad","A Moderate Amount,Very Low,20 min away,20 min away,Moderate,Bad,1500 square feet,Large,A Lot,2016,15 min away,Very Good",0,8874,2022-01-25 23:39:23,10025
5dd73f496ca7e76e32b1aa16,ma_choice_v3_pilot3,5dd73f496ca7e76e32b1aa16,3,1,-1,-1,"Year building was built,Size of home,Size of yard,Reputation of closest school,Proximity to parks,Quality of heat/AC system,Amount of crime in neighborhood,Proximity to cafes/restaurants,Proximity to public transportation,Amount of traffic,Noise pollution,Amount of natural light","1971,700 square feet,Small,Very Good,5 min away,Bad,Very High,5 min away,10 min away,A Moderate Amount,Very High,A Lot","2018,1300 square feet,Medium,Very Bad,15 min away,Very Good,Very Low,10 min away,20 min away,A Little,Very Low,A Little",1,17105,2022-01-25 23:39:25,10026
5dd6861c070fdc6179d8003e,ma_choice_v3_pilot3,5dd6861c070fdc6179d8003e,10,0,-1,-1,"Amount of traffic,Quality of heat/AC system,Proximity to cafes/restaurants,Proximity to parks,Reputation of closest school,Amount of crime in neighborhood,Amount of natural light,Size of home,Year building was built,Proximity to public transportation,Noise pollution,Size of yard","A Lot,Very Good,5 min away,10 min away,Very Bad,Low,A Little,1300 square feet,1975,25 min away,High,Medium","A Little,Very Bad,15 min away,5 min away,Very Good,Moderate,Very Little,1700 square feet,2001,15 min away,Very High,Large",0,15357,2022-01-25 23:39:27,10027
5c112b5d8124060001bfa35f,ma_choice_v3_pilot3,5c112b5d8124060001bfa35f,13,0,-1,-1,"Amount of traffic,Proximity to cafes/restaurants,Year building was built,Proximity to parks,Proximity to public transportation,Size of home,Reputation of closest school,Amount of crime in neighborhood,Noise pollution,Size of yard,Quality of heat/AC system,Amount of natural light","Very Little,15 min away,2002,15 min away,5 min away,1300 square feet,Bad,Low,Very Low,None,Good,Very Little","A Lot,20 min away,1957,10 min away,15 min away,1600 square feet,Very Bad,Very Low,High,Very Large,Very Good,A Moderate Amount",0,11274,2022-01-25 23:39:35,10028
5af5bcf9b4dfd600018fc68e,ma_choice_v3_pilot3,5af5bcf9b4dfd600018fc68e,1,1,-1,-1,"Size of yard,Noise pollution,Proximity to public transportation,Amount of crime in neighborhood,Amount of natural light,Quality of heat/AC system,Reputation of closest school,Amount of traffic,Size of home,Proximity to parks,Proximity to cafes/restaurants,Year building was built","Large,Low,25 min away,Very High,A Little,Very Bad,Good,A Lot,900 square feet,20 min away,20 min away,1959","None,Very Low,20 min away,Low,A Moderate Amount,Bad,Moderate,A Moderate Amount,1100 square feet,5 min away,15 min away,2013",1,18266,2022-01-25 23:39:39,10029
5dd73f496ca7e76e32b1aa16,ma_choice_v3_pilot3,5dd73f496ca7e76e32b1aa16,4,1,-1,-1,"Quality of heat/AC system,Reputation of closest school,Year building was built,Proximity to parks,Proximity to public transportation,Size of yard,Amount of crime in neighborhood,Amount of traffic,Proximity to cafes/restaurants,Noise pollution,Amount of natural light,Size of home","Very Bad,Very Good,1998,15 min away,5 min away,None,Very Low,Very Little,15 min away,Very High,Very Little,1600 square feet","Bad,Bad,2015,5 min away,25 min away,Small,Low,A Little,20 min away,Moderate,A Moderate Amount,600 square feet",0,13269,2022-01-25 23:39:39,10030
5dd6861c070fdc6179d8003e,ma_choice_v3_pilot3,5dd6861c070fdc6179d8003e,11,0,-1,-1,"Amount of crime in neighborhood,Proximity to cafes/restaurants,Proximity to public transportation,Size of yard,Size of home,Reputation of closest school,Noise pollution,Year building was built,Quality of heat/AC system,Amount of traffic,Amount of natural light,Proximity to parks","High,25 min away,15 min away,Medium,1200 square feet,Good,Low,1973,Bad,A Moderate Amount,A Lot,5 min away","Very High,5 min away,20 min away,None,900 square feet,Very Good,Moderate,1957,Good,A Little,A Little,10 min away",1,12322,2022-01-25 23:39:40,10031
5c112b5d8124060001bfa35f,ma_choice_v3_pilot3,5c112b5d8124060001bfa35f,14,0,-1,-1,"Proximity to parks,Noise pollution,Quality of heat/AC system,Amount of crime in neighborhood,Size of home,Proximity to public transportation,Reputation of closest school,Proximity to cafes/restaurants,Year building was built,Amount of natural light,Amount of traffic,Size of yard","20 min away,Very Low,Very Bad,High,1000 square feet,20 min away,Bad,20 min away,1956,A Little,A Lot,Large","5 min away,High,Very Good,Very High,1700 square feet,25 min away,Very Good,10 min away,2010,A Lot,A Little,Small",0,12195,2022-01-25 23:39:48,10032
5dd6861c070fdc6179d8003e,ma_choice_v3_pilot3,5dd6861c070fdc6179d8003e,12,0,-1,-1,"Proximity to public transportation,Amount of natural light,Reputation of closest school,Noise pollution,Size of home,Year building was built,Proximity to cafes/restaurants,Proximity to parks,Amount of traffic,Size of yard,Quality of heat/AC system,Amount of crime in neighborhood","5 min away,A Moderate Amount,Good,High,1200 square feet,1979,15 min away,25 min away,A Moderate Amount,Very Large,Good,Very Low","10 min away,Very Little,Very Good,Very High,800 square feet,1950,10 min away,20 min away,A Lot,Medium,Very Bad,Moderate",0,8413,2022-01-25 23:39:50,10033
5af5bcf9b4dfd600018fc68e,ma_choice_v3_pilot3,5af5bcf9b4dfd600018fc68e,2,1,-1,-1,"Amount of traffic,Proximity to cafes/restaurants,Reputation of closest school,Amount of natural light,Size of yard,Amount of crime in neighborhood,Quality of heat/AC system,Year building was built,Size of home,Proximity to public transportation,Proximity to parks,Noise pollution","A Moderate Amount,10 min away,Very Bad,Very Little,Very Large,Very High,Moderate,1972,800 square feet,15 min away,25 min away,Very Low","A Lot,20 min away,Moderate,A Little,Medium,Very Low,Very Good,1951,1100 square feet,5 min away,20 min away,High",1,15796,2022-01-25 23:39:56,10034
5dd6861c070fdc6179d8003e,ma_choice_v3_pilot3,5dd6861c070fdc6179d8003e,13,0,-1,-1,"Size of home,Reputation of closest school,Proximity to cafes/restaurants,Amount of crime in neighborhood,Size of yard,Year building was built,Amount of natural light,Proximity to public transportation,Quality of heat/AC system,Noise pollution,Proximity to parks,Amount of traffic","1000 square feet,Bad,15 min away,Moderate,None,2004,A Little,25 min away,Moderate,High,10 min away,A Little","1100 square feet,Good,20 min away,High,Large,1969,A Moderate Amount,10 min away,Good,Low,25 min away,Very Little",0,7578,2022-01-25 23:39:58,10035
5dd73f496ca7e76e32b1aa16,ma_choice_v3_pilot3,5dd73f496ca7e76e32b1aa16,5,1,-1,-1,"Noise pollution,Amount of traffic,Reputation of closest school,Size of home,Proximity to parks,Proximity to cafes/restaurants,Proximity to public transportation,Size of yard,Quality of heat/AC system,Year building was built,Amount of crime in neighborhood,Amount of natural light","High,Very Little,Very Bad,1700 square feet,10 min away,25 min away,5 min away,Very Large,Moderate,1957,Moderate,A Moderate Amount","Moderate,A Lot,Very Good,1600 square feet,25 min away,5 min away,20 min away,None,Very Good,1980,High,Very Little",0,18994,2022-01-25 23:39:59,10036
5c112b5d8124060001bfa35f,ma_choice_v3_pilot3,5c112b5d8124060001bfa35f,15,0,-1,-1,"Year building was built,Amount of natural light,Quality of heat/AC system,Proximity to public transportation,Size of yard,Proximity to cafes/restaurants,Amount of crime in neighborhood,Size of home,Reputation of closest school,Proximity to parks,Amount of traffic,Noise pollution","1987,Very Little,Moderate,15 min away,Large,15 min away,Very High,1200 square feet,Bad,15 min away,A Little,Very High","2008,A Little,Very Bad,5 min away,None,25 min away,High,1000 square feet,Good,10 min away,A Moderate Amount,Low",1,10170,2022-01-25 23:39:59,10037
5dd6861c070fdc6179d8003e,ma_choice_v3_pilot3,5dd6861c070fdc6179d8003e,14,0,-1,-1,"Amount of traffic,Size of home,Amount of natural light,Quality of heat/AC system,Amount of crime in neighborhood,Reputation of closest school,Year building was built,Proximity to cafes/restaurants,Noise pollution,Size of yard,Proximity to public transportation,Proximity to parks","A Lot,1100 square feet,A Lot,Very Good,High,Bad,1977,25 min away,Very High,Medium,5 min away,15 min away","Very Little,600 square feet,A Moderate Amount,Moderate,Low,Moderate,2014,15 min away,High,None,20 min away,5 min away",1,8022,2022-01-25 23:40:07,10038
5c112b5d8124060001bfa35f,ma_choice_v3_pilot3,5c112b5d8124060001bfa35f,16,0,-1,-1,"Amount of crime in neighborhood,Size of home,Noise pollution,Proximity to parks,Proximity to cafes/restaurants,Amount of traffic,Quality of heat/AC system,Amount of natural light,Size of yard,Reputation of closest school,Year building was built,Proximity to public transportation","Very Low,1500 square feet,High,10 min away,20 min away,A Little,Bad,A Little,None,Very Good,1992,5 min away","High,1600 square feet,Very High,25 min away,15 min away,A Lot,Very Bad,Very Little,Very Large,Good,1955,20 min away",0,8084,2022-01-25 23:40:08,10039
5af5bcf9b4dfd600018fc68e,ma_choice_v3_pilot3,5af5bcf9b4dfd600018fc68e,3,1,-1,-1,"Noise pollution,Amount of natural light,Size of home,Size of yard,Proximity to parks,Year building was built,Quality of heat/AC system,Amount of traffic,Amount of crime in neighborhood,Proximity to cafes/restaurants,Proximity to public transportation,Reputation of closest school","Very Low,A Little,1000 square feet,None,20 min away,1953,Good,A Lot,Very Low,15 min away,25 min away,Good","Very High,Very Little,1200 square feet,Large,5 min away,2007,Very Good,Very Little,High,25 min away,5 min away,Very Bad",1,13902,2022-01-25 23:40:11,10040
5c112b5d8124060001bfa35f,ma_choice_v3_pilot3,5c112b5d8124060001bfa35f,17,0,-1,-1,"Size of home,Amount of natural light,Year building was built,Noise pollution,Amount of crime in neighborhood,Amount of traffic,Quality of heat/AC system,Size of yard,Proximity to public transportation,Proximity to cafes/restaurants,Proximity to parks,Reputation of closest school","1300 square feet,A Moderate Amount,1999,Very High,Very Low,A Lot,Bad,Small,15 min away,15 min away,15 min away,Very Good","1700 square feet,Very Little,2018,Moderate,High,A Little,Good,None,20 min away,5 min away,25 min away,Moderate",0,7619,2022-01-25 23:40:17,10041
5dd6861c070fdc6179d8003e,ma_choice_v3_pilot3,5dd6861c070fdc6179d8003e,15,0,-1,-1,"Year building was built,Proximity to cafes/restaurants,Amount of natural light,Quality of heat/AC system,Reputation of closest school,Amount of crime in neighborhood,Proximity to public transportation,Size of yard,Amount of traffic,Size of home,Noise pollution,Proximity to parks","1977,15 min away,A Lot,Moderate,Good,Moderate,20 min away,Very Large,A Little,1200 square feet,Very High,5 min away","1953,20 min away,A Little,Bad,Moderate,High,25 min away,Large,A Moderate Amount,800 square feet,Very Low,20 min away",0,13784,2022-01-25 23:40:22,10042
5af5bcf9b4dfd600018fc68e,ma_choice_v3_pilot3,5af5bcf9b4dfd600018fc68e,4,1,-1,-1,"Reputation of closest school,Noise pollution,Size of yard,Amount of crime in neighborhood,Proximity to parks,Year building was built,Proximity to public transportation,Quality of heat/AC system,Amount of natural light,Size of home,Amount of traffic,Proximity to cafes/restaurants","Very Good,Very Low,Medium,Moderate,15 min away,2011,5 min away,Moderate,A Moderate Amount,900 square feet,A Lot,15 min away","Moderate,Low,None,Very High,20 min away,1988,15 min away,Very Bad,Very Little,1100 square feet,A Little,20 min away",0,14261,2022-01-25 23:40:26,10043
5dd73f496ca7e76e32b1aa16,ma_choice_v3_pilot3,5dd73f496ca7e76e32b1aa16,6,1,-1,-1,"Quality of heat/AC system,Proximity to cafes/restaurants,Proximity to parks,Amount of natural light,Size of yard,Amount of crime in neighborhood,Year building was built,Noise pollution,Proximity to public transportation,Reputation of closest school,Size of home,Amount of traffic","Moderate,25 min away,25 min away,A Moderate Amount,None,Low,1970,Very Low,25 min away,Good,1600 square feet,A Little","Bad,10 min away,10 min away,A Little,Small,Very High,1958,Very High,20 min away,Very Good,900 square feet,Very Little",1,28346,2022-01-25 23:40:28,10044
5c112b5d8124060001bfa35f,ma_choice_v3_pilot3,5c112b5d8124060001bfa35f,18,0,-1,-1,"Proximity to cafes/restaurants,Quality of heat/AC system,Amount of crime in neighborhood,Proximity to parks,Size of home,Amount of traffic,Proximity to public transportation,Size of yard,Reputation of closest school,Amount of natural light,Noise pollution,Year building was built","5 min away,Good,Low,20 min away,1400 square feet,A Moderate Amount,25 min away,Small,Bad,A Little,Moderate,1971","20 min away,Very Good,Moderate,25 min away,1100 square feet,Very Little,15 min away,Very Large,Moderate,Very Little,Very High,2006",0,12391,2022-01-25 23:40:30,10045
5dd6861c070fdc6179d8003e,ma_choice_v3_pilot3,5dd6861c070fdc6179d8003e,16,0,-1,-1,"Amount of natural light,Year building was built,Quality of heat/AC system,Proximity to cafes/restaurants,Size of yard,Noise pollution,Proximity to public transportation,Reputation of closest school,Amount of crime in neighborhood,Proximity to parks,Size of home,Amount of traffic","A Lot,1965,Very Good,20 min away,None,Moderate,20 min away,Moderate,Low,25 min away,900 square feet,A Lot","A Little,2013,Moderate,25 min away,Small,Low,25 min away,Good,Very Low,10 min away,1400 square feet,A Little",1,7507,2022-01-25 23:40:31,10046
5af5bcf9b4dfd600018fc68e,ma_choice_v3_pilot3,5af5bcf9b4dfd600018fc68e,5,1,-1,-1,"Noise pollution,Amount of crime in neighborhood,Size of yard,Amount of traffic,Proximity to cafes/restaurants,Proximity to parks,Size of home,Amount of natural light,Proximity to public transportation,Quality of heat/AC system,Reputation of closest school,Year building was built","Low,Very High,Small,Very Little,25 min away,15 min away,900 square feet,A Lot,25 min away,Moderate,Bad,1981","Moderate,High,Very Large,A Little,5 min away,5 min away,1400 square feet,A Little,20 min away,Good,Good,1958",1,11725,2022-01-25 23:40:39,10047
5c112b5d8124060001bfa35f,ma_choice_v3_pilot3,5c112b5d8124060001bfa35f,19,0,-1,-1,"Proximity to parks,Amount of traffic,Reputation of closest school,Quality of heat/AC system,Proximity to public transportation,Proximity to cafes/restaurants,Year building was built,Noise pollution,Amount of crime in neighborhood,Size of yard,Size of home,Amount of natural light","10 min away,Very Little,Very Bad,Good,5 min away,10 min away,2003,Low,High,Medium,700 square feet,A Lot","25 min away,A Lot,Good,Very Good,15 min away,15 min away,1989,Very Low,Low,Large,1100 square feet,A Moderate Amount",1,7826,2022-01-25 23:40:39,10048
5dd6861c070fdc6179d8003e,ma_choice_v3_pilot3,5dd6861c070fdc6179d8003e,17,0,-1,-1,"Year building was built,Size of yard,Size of home,Amount of traffic,Proximity to parks,Amount of crime in neighborhood,Quality of heat/AC system,Reputation of closest school,Amount of natural light,Noise pollution,Proximity to cafes/restaurants,Proximity to public transportation","1957,None,1000 square feet,A Lot,25 min away,Very High,Very Bad,Very Good,A Lot,Moderate,25 min away,25 min away","2000,Small,1200 square feet,A Moderate Amount,10 min away,Very Low,Moderate,Good,A Little,Very High,20 min away,5 min away",1,7656,2022-01-25 23:40:39,10049
5f202fb60bd98f087818ea51,ma_choice_v3_pilot3,5f202fb60bd98f087818ea51,0,1,-1,-1,"Year building was built,Quality of heat/AC system,Size of home,Reputation of closest school,Proximity to cafes/restaurants,Amount of traffic,Proximity to public transportation,Noise pollution,Amount of natural light,Amount of crime in neighborhood,Proximity to parks,Size of yard","1976,Very Bad,600 square feet,Bad,10 min away,A Little,10 min away,Moderate,Very Little,Very Low,10 min away,Medium","1994,Bad,1300 square feet,Very Bad,15 min away,Very Little,15 min away,High,A Little,High,15 min away,Small",0,30446,2022-01-25 23:40:42,10050
5dd6861c070fdc6179d8003e,ma_choice_v3_pilot3,5dd6861c070fdc6179d8003e,18,0,-1,-1,"Noise pollution,Amount of natural light,Amount of crime in neighborhood,Proximity to public transportation,Quality of heat/AC system,Proximity to parks,Year building was built,Proximity to cafes/restaurants,Reputation of closest school,Amount of traffic,Size of home,Size of yard","High,A Moderate Amount,High,10 min away,Moderate,10 min away,2017,5 min away,Moderate,A Little,1500 square feet,None","Very High,Very Little,Low,15 min away,Very Bad,20 min away,1957,10 min away,Very Bad,Very Little,1200 square feet,Small",1,7822,2022-01-25 23:40:48,10051
5c112b5d8124060001bfa35f,ma_choice_v3_pilot3,5c112b5d8124060001bfa35f,20,0,-1,-1,"Size of yard,Amount of crime in neighborhood,Amount of natural light,Noise pollution,Proximity to cafes/restaurants,Proximity to public transportation,Reputation of closest school,Proximity to parks,Amount of traffic,Quality of heat/AC system,Year building was built,Size of home","Large,Very High,Very Little,High,10 min away,20 min away,Moderate,25 min away,A Moderate Amount,Moderate,1976,800 square feet","Medium,Low,A Moderate Amount,Moderate,5 min away,5 min away,Good,20 min away,Very Little,Very Bad,1964,1800 square feet",1,8236,2022-01-25 23:40:48,10052
5dd73f496ca7e76e32b1aa16,ma_choice_v3_pilot3,5dd73f496ca7e76e32b1aa16,7,1,-1,-1,"Noise pollution,Amount of traffic,Amount of natural light,Size of home,Amount of crime in neighborhood,Quality of heat/AC system,Proximity to parks,Proximity to cafes/restaurants,Reputation of closest school,Year building was built,Proximity to public transportation,Size of yard","High,A Lot,A Lot,1400 square feet,High,Very Good,15 min away,10 min away,Very Bad,1978,5 min away,Medium","Very High,A Moderate Amount,Very Little,1600 square feet,Moderate,Moderate,20 min away,15 min away,Good,2006,25 min away,Small",1,22407,2022-01-25 23:40:52,10053
5af5bcf9b4dfd600018fc68e,ma_choice_v3_pilot3,5af5bcf9b4dfd600018fc68e,6,1,-1,-1,"Year building was built,Reputation of closest school,Size of yard,Amount of crime in neighborhood,Size of home,Amount of traffic,Noise pollution,Amount of natural light,Proximity to public transportation,Quality of heat/AC system,Proximity to parks,Proximity to cafes/restaurants","1979,Very Good,Medium,Very Low,1100 square feet,A Moderate Amount,Moderate,Very Little,10 min away,Very Bad,20 min away,25 min away","1998,Very Bad,Small,Moderate,1400 square feet,Very Little,Very Low,A Moderate Amount,15 min away,Bad,15 min away,5 min away",1,14597,2022-01-25 23:40:54,10054
5f202fb60bd98f087818ea51,ma_choice_v3_pilot3,5f202fb60bd98f087818ea51,1,1,-1,-1,"Reputation of closest school,Amount of natural light,Noise pollution,Proximity to parks,Year building was built,Proximity to cafes/restaurants,Size of yard,Amount of crime in neighborhood,Amount of traffic,Proximity to public transportation,Quality of heat/AC system,Size of home","Good,A Little,Moderate,10 min away,1958,20 min away,Very Large,Moderate,A Lot,15 min away,Good,1700 square feet","Very Good,A Lot,High,15 min away,2009,25 min away,Small,Low,A Little,20 min away,Very Good,1100 square feet",1,16405,2022-01-25 23:41:00,10055
5dd6861c070fdc6179d8003e,ma_choice_v3_pilot3,5dd6861c070fdc6179d8003e,19,0,-1,-1,"Noise pollution,Size of home,Proximity to public transportation,Year building was built,Quality of heat/AC system,Amount of traffic,Proximity to parks,Amount of crime in neighborhood,Proximity to cafes/restaurants,Size of yard,Reputation of closest school,Amount of natural light","Moderate,800 square feet,5 min away,1973,Bad,A Moderate Amount,25 min away,Moderate,15 min away,Small,Moderate,Very Little","Very Low,1300 square feet,25 min away,2007,Moderate,A Little,5 min away,High,10 min away,Medium,Very Good,A Moderate Amount",0,13269,2022-01-25 23:41:03,10056
5af5bcf9b4dfd600018fc68e,ma_choice_v3_pilot3,5af5bcf9b4dfd600018fc68e,7,1,-1,-1,"Proximity to cafes/restaurants,Proximity to public transportation,Year building was built,Amount of crime in neighborhood,Size of home,Amount of traffic,Reputation of closest school,Quality of heat/AC system,Amount of natural light,Proximity to parks,Noise pollution,Size of yard","5 min away,20 min away,1997,Very High,1400 square feet,A Little,Bad,Very Bad,A Little,5 min away,Low,Small","15 min away,15 min away,2008,Moderate,1200 square feet,Very Little,Moderate,Moderate,Very Little,15 min away,Moderate,Very Large",1,13043,2022-01-25 23:41:08,10057
5dd73f496ca7e76e32b1aa16,ma_choice_v3_pilot3,5dd73f496ca7e76e32b1aa16,8,1,-1,-1,"Proximity to parks,Amount of natural light,Noise pollution,Proximity to public transportation,Amount of traffic,Size of home,Reputation of closest school,Year building was built,Quality of heat/AC system,Proximity to cafes/restaurants,Amount of crime in neighborhood,Size of yard","10 min away,A Little,Very High,15 min away,A Lot,1500 square feet,Bad,2000,Moderate,10 min away,Very Low,Large","15 min away,Very Little,Low,5 min away,A Little,1000 square feet,Good,1959,Very Good,5 min away,Moderate,None",1,16277,2022-01-25 23:41:09,10058
5c112b5d8124060001bfa35f,ma_choice_v3_pilot3,5c112b5d8124060001bfa35f,21,0,-1,-1,"Size of yard,Proximity to parks,Proximity to public transportation,Amount of natural light,Amount of traffic,Reputation of closest school,Year building was built,Noise pollution,Amount of crime in neighborhood,Size of home,Proximity to cafes/restaurants,Quality of heat/AC system","Medium,15 min away,10 min away,Very Little,Very Little,Good,1955,Moderate,Very Low,1100 square feet,20 min away,Moderate","Small,10 min away,5 min away,A Moderate Amount,A Lot,Very Bad,1982,Very High,Moderate,900 square feet,15 min away,Very Bad",0,21907,2022-01-25 23:41:11,10059
5dd6861c070fdc6179d8003e,ma_choice_v3_pilot3,5dd6861c070fdc6179d8003e,20,0,-1,-1,"Amount of crime in neighborhood,Reputation of closest school,Size of yard,Amount of traffic,Proximity to cafes/restaurants,Proximity to parks,Quality of heat/AC system,Year building was built,Noise pollution,Amount of natural light,Proximity to public transportation,Size of home","Very High,Very Bad,Large,A Little,15 min away,25 min away,Good,1968,Very Low,A Moderate Amount,25 min away,1800 square feet","High,Bad,None,Very Little,5 min away,5 min away,Very Bad,2000,High,Very Little,15 min away,1200 square feet",0,13093,2022-01-25 23:41:17,10060
5c112b5d8124060001bfa35f,ma_choice_v3_pilot3,5c112b5d8124060001bfa35f,22,0,-1,-1,"Year building was built,Size of yard,Proximity to public transportation,Amount of crime in neighborhood,Noise pollution,Amount of traffic,Size of home,Amount of natural light,Reputation of closest school,Proximity to cafes/restaurants,Quality of heat/AC system,Proximity to parks","2008,Small,5 min away,Low,Very High,A Lot,900 square feet,A Lot,Good,20 min away,Very Bad,15 min away","1954,None,15 min away,High,Very Low,A Moderate Amount,800 square feet,A Little,Bad,10 min away,Moderate,20 min away",0,7649,2022-01-25 23:41:20,10061
5af5bcf9b4dfd600018fc68e,ma_choice_v3_pilot3,5af5bcf9b4dfd600018fc68e,8,1,-1,-1,"Proximity to parks,Proximity to public transportation,Noise pollution,Year building was built,Amount of natural light,Reputation of closest school,Proximity to cafes/restaurants,Quality of heat/AC system,Size of home,Amount of crime in neighborhood,Size of yard,Amount of traffic","10 min away,25 min away,Very High,1955,A Moderate Amount,Bad,10 min away,Very Bad,600 square feet,Very Low,Large,A Moderate Amount","20 min away,15 min away,Moderate,2011,Very Little,Good,5 min away,Very Good,1400 square feet,High,Medium,A Little",0,16560,2022-01-25 23:41:26,10062
5dd6861c070fdc6179d8003e,ma_choice_v3_pilot3,5dd6861c070fdc6179d8003e,21,0,-1,-1,"Amount of natural light,Noise pollution,Amount of traffic,Size of yard,Proximity to parks,Quality of heat/AC system,Reputation of closest school,Proximity to cafes/restaurants,Year building was built,Proximity to public transportation,Amount of crime in neighborhood,Size of home","A Lot,Low,Very Little,Very Large,15 min away,Good,Moderate,20 min away,1969,20 min away,High,1200 square feet","A Little,Very Low,A Moderate Amount,Large,25 min away,Very Bad,Very Good,5 min away,1980,15 min away,Moderate,800 square feet",1,8682,2022-01-25 23:41:26,10063
5f202fb60bd98f087818ea51,ma_choice_v3_pilot3,5f202fb60bd98f087818ea51,2,1,-1,-1,"Size of home,Amount of natural light,Amount of traffic,Year building was built,Proximity to parks,Quality of heat/AC system,Proximity to public transportation,Noise pollution,Proximity to cafes/restaurants,Reputation of closest school,Size of yard,Amount of crime in neighborhood","1200 square feet,A Moderate Amount,Very Little,2005,10 min away,Good,15 min away,Moderate,10 min away,Very Bad,None,Very Low","1700 square feet,A Lot,A Little,2019,5 min away,Bad,20 min away,Low,20 min away,Good,Small,Moderate",0,29390,2022-01-25 23:41:30,10064
5c112b5d8124060001bfa35f,ma_choice_v3_pilot3,5c112b5d8124060001bfa35f,23,0,-1,-1,"Reputation of closest school,Proximity to public transportation,Quality of heat/AC system,Amount of traffic,Year building was built,Noise pollution,Proximity to parks,Amount of natural light,Size of home,Size of yard,Proximity to cafes/restaurants,Amount of crime in neighborhood","Very Bad,15 min away,Moderate,A Lot,1990,Very Low,5 min away,A Little,1400 square feet,Small,15 min away,Low","Moderate,25 min away,Good,Very Little,1979,Low,10 min away,A Moderate Amount,1300 square feet,Large,25 min away,Moderate",0,10567,2022-01-25 23:41:32,10065
5dd73f496ca7e76e32b1aa16,ma_choice_v3_pilot3,5dd73f496ca7e76e32b1aa16,9,1,-1,-1,"Proximity to parks,Noise pollution,Year building was built,Reputation of closest school,Proximity to cafes/restaurants,Size of home,Amount of crime in neighborhood,Amount of traffic,Proximity to public transportation,Amount of natural light,Size of yard,Quality of heat/AC system","20 min away,Low,2007,Moderate,15 min away,900 square feet,Very High,A Moderate Amount,25 min away,A Moderate Amount,Large,Moderate","10 min away,Very High,1984,Very Bad,5 min away,800 square feet,Very Low,A Little,10 min away,A Lot,Very Large,Very Bad",1,22633,2022-01-25 23:41:33,10066
5af5bcf9b4dfd600018fc68e,ma_choice_v3_pilot3,5af5bcf9b4dfd600018fc68e,9,1,-1,-1,"Proximity to parks,Proximity to public transportation,Quality of heat/AC system,Reputation of closest school,Amount of traffic,Size of home,Year building was built,Noise pollution,Amount of crime in neighborhood,Proximity to cafes/restaurants,Size of yard,Amount of natural light","25 min away,5 min away,Very Bad,Very Bad,Very Little,1600 square feet,1975,Moderate,High,15 min away,None,A Lot","10 min away,20 min away,Moderate,Very Good,A Little,1300 square feet,2003,Low,Very Low,25 min away,Medium,Very Little",1,10737,2022-01-25 23:41:38,10067
5dd6861c070fdc6179d8003e,ma_choice_v3_pilot3,5dd6861c070fdc6179d8003e,22,0,-1,-1,"Year building was built,Proximity to cafes/restaurants,Size of home,Noise pollution,Amount of crime in neighborhood,Proximity to parks,Quality of heat/AC system,Proximity to public transportation,Amount of natural light,Reputation of closest school,Amount of traffic,Size of yard","1999,15 min away,900 square feet,High,High,10 min away,Good,5 min away,A Moderate Amount,Very Good,Very Little,Small","1955,20 min away,1100 square feet,Very High,Very High,15 min away,Very Good,10 min away,Very Little,Bad,A Lot,Medium",1,11505,2022-01-25 23:41:39,10068
5c112b5d8124060001bfa35f,ma_choice_v3_pilot3,5c112b5d8124060001bfa35f,24,0,-1,-1,"Noise pollution,Size of home,Proximity to public transportation,Quality of heat/AC system,Reputation of closest school,Amount of natural light,Amount of crime in neighborhood,Amount of traffic,Proximity to cafes/restaurants,Year building was built,Proximity to parks,Size of yard","Very High,1000 square feet,5 min away,Bad,Very Good,Very Little,Low,A Moderate Amount,5 min away,1969,10 min away,Very Large","Very Low,1300 square feet,15 min away,Moderate,Good,A Little,Very Low,A Little,20 min away,1956,5 min away,Large",1,8746,2022-01-25 23:41:41,10069
5dd6861c070fdc6179d8003e,ma_choice_v3_pilot3,5dd6861c070fdc6179d8003e,23,0,-1,-1,"Proximity to parks,Noise pollution,Size of yard,Proximity to public transportation,Year building was built,Amount of natural light,Amount of crime in neighborhood,Reputation of closest school,Quality of heat/AC system,Amount of traffic,Proximity to cafes/restaurants,Size of home","20 min away,Very High,None,15 min away,1997,A Moderate Amount,Moderate,Very Good,Very Bad,A Moderate Amount,25 min away,1300 square feet","10 min away,Moderate,Medium,5 min away,2009,A Lot,Very High,Very Bad,Bad,Very Little,10 min away,1100 square feet",0,7610,2022-01-25 23:41:47,10070
5c112b5d8124060001bfa35f,ma_choice_v3_pilot3,5c112b5d8124060001bfa35f,25,0,-1,-1,"Size of yard,Noise pollution,Proximity to parks,Amount of traffic,Reputation of closest school,Proximity to public transportation,Year building was built,Proximity to cafes/restaurants,Quality of heat/AC system,Amount of crime in neighborhood,Amount of natural light,Size of home","None,Low,10 min away,A Little,Good,15 min away,2017,15 min away,Very Bad,Very Low,A Moderate Amount,1400 square feet","Large,Very Low,20 min away,A Moderate Amount,Moderate,20 min away,2006,25 min away,Very Good,Moderate,A Little,1600 square feet",1,7627,2022-01-25 23:41:50,10071
5dd6861c070fdc6179d8003e,ma_choice_v3_pilot3,5dd6861c070fdc6179d8003e,24,0,-1,-1,"Quality of heat/AC system,Year building was built,Proximity to parks,Size of yard,Proximity to public transportation,Noise pollution,Proximity to cafes/restaurants,Reputation of closest school,Amount of traffic,Amount of natural light,Size of home,Amount of crime in neighborhood","Moderate,1950,20 min away,None,20 min away,Very Low,15 min away,Moderate,A Lot,A Lot,1400 square feet,Very Low","Good,1968,25 min away,Small,10 min away,Very High,10 min away,Very Bad,A Little,Very Little,1100 square feet,Moderate",0,7519,2022-01-25 23:41:56,10072
5c112b5d8124060001bfa35f,ma_choice_v3_pilot3,5c112b5d8124060001bfa35f,26,0,-1,-1,"Quality of heat/AC system,Year building was built,Size of home,Amount of natural light,Reputation of closest school,Size of yard,Proximity to public transportation,Amount of crime in neighborhood,Amount of traffic,Noise pollution,Proximity to parks,Proximity to cafes/restaurants","Moderate,1974,1700 square feet,A Little,Very Bad,Medium,25 min away,Low,A Moderate Amount,Moderate,10 min away,15 min away","Good,2008,1300 square feet,A Moderate Amount,Moderate,Very Large,15 min away,Very High,A Little,High,20 min away,20 min away",0,7696,2022-01-25 23:41:59,10073
5f202fb60bd98f087818ea51,ma_choice_v3_pilot3,5f202fb60bd98f087818ea51,3,1,-1,-1,"Quality of heat/AC system,Reputation of closest school,Proximity to public transportation,Noise pollution,Amount of crime in neighborhood,Size of yard,Year building was built,Size of home,Proximity to cafes/restaurants,Proximity to parks,Amount of natural light,Amount of traffic","Bad,Good,5 min away,High,Very Low,Small,1961,700 square feet,5 min away,10 min away,A Lot,A Moderate Amount","Very Good,Very Bad,25 min away,Very Low,Very High,Large,2012,1100 square feet,10 min away,20 min away,A Little,Very Little",0,27693,2022-01-25 23:41:59,10074
5dd73f496ca7e76e32b1aa16,ma_choice_v3_pilot3,5dd73f496ca7e76e32b1aa16,0,0,-1,-1,"Proximity to parks,Noise pollution,Amount of crime in neighborhood,Size of yard,Proximity to cafes/restaurants,Size of home,Amount of natural light,Quality of heat/AC system,Proximity to public transportation,Amount of traffic,Reputation of closest school,Year building was built","15 min away,Very Low,Very Low,Large,15 min away,800 square feet,A Moderate Amount,Very Bad,25 min away,Very Little,Good,1962","25 min away,Very High,Moderate,Medium,10 min away,1400 square feet,Very Little,Very Good,20 min away,A Moderate Amount,Very Good,1998",1,18226,2022-01-25 23:42:03,10075
5dd6861c070fdc6179d8003e,ma_choice_v3_pilot3,5dd6861c070fdc6179d8003e,25,0,-1,-1,"Proximity to parks,Proximity to public transportation,Year building was built,Amount of natural light,Amount of crime in neighborhood,Size of yard,Noise pollution,Amount of traffic,Proximity to cafes/restaurants,Size of home,Reputation of closest school,Quality of heat/AC system","5 min away,25 min away,1979,A Little,Moderate,Large,Moderate,A Lot,25 min away,1000 square feet,Bad,Very Good","15 min away,10 min away,1957,A Lot,Very Low,None,High,A Little,15 min away,1200 square feet,Very Good,Very Bad",1,7543,2022-01-25 23:42:05,10076
5c112b5d8124060001bfa35f,ma_choice_v3_pilot3,5c112b5d8124060001bfa35f,27,0,-1,-1,"Proximity to cafes/restaurants,Reputation of closest school,Size of yard,Size of home,Noise pollution,Amount of traffic,Year building was built,Proximity to parks,Proximity to public transportation,Quality of heat/AC system,Amount of crime in neighborhood,Amount of natural light","10 min away,Very Good,Medium,1100 square feet,Low,A Little,1997,20 min away,10 min away,Very Good,Moderate,A Lot","5 min away,Bad,Very Large,900 square feet,Moderate,Very Little,1978,25 min away,25 min away,Good,High,Very Little",0,8207,2022-01-25 23:42:08,10077
5dd6861c070fdc6179d8003e,ma_choice_v3_pilot3,5dd6861c070fdc6179d8003e,26,0,-1,-1,"Proximity to public transportation,Quality of heat/AC system,Reputation of closest school,Proximity to cafes/restaurants,Amount of crime in neighborhood,Size of home,Proximity to parks,Size of yard,Amount of natural light,Amount of traffic,Noise pollution,Year building was built","20 min away,Very Good,Very Bad,15 min away,Very Low,1000 square feet,25 min away,Very Large,Very Little,Very Little,Very High,1987","15 min away,Very Bad,Very Good,20 min away,Very High,1300 square feet,10 min away,Large,A Little,A Lot,Low,2007",0,7500,2022-01-25 23:42:13,10078
5c112b5d8124060001bfa35f,ma_choice_v3_pilot3,5c112b5d8124060001bfa35f,28,0,-1,-1,"Proximity to cafes/restaurants,Reputation of closest school,Year building was built,Size of home,Amount of natural light,Amount of traffic,Proximity to parks,Noise pollution,Proximity to public transportation,Amount of crime in neighborhood,Quality of heat/AC system,Size of yard","25 min away,Moderate,1974,1300 square feet,A Moderate Amount,A Moderate Amount,10 min away,High,25 min away,Very High,Bad,Very Large","20 min away,Very Bad,1958,1000 square feet,A Little,Very Little,5 min away,Very Low,10 min away,High,Moderate,Medium",1,7754,2022-01-25 23:42:17,10079
5f202fb60bd98f087818ea51,ma_choice_v3_pilot3,5f202fb60bd98f087818ea51,4,1,-1,-1,"Amount of natural light,Noise pollution,Proximity to parks,Size of home,Amount of crime in neighborhood,Proximity to public transportation,Amount of traffic,Year building was built,Proximity to cafes/restaurants,Reputation of closest school,Quality of heat/AC system,Size of yard","Very Little,High,15 min away,1700 square feet,Very High,5 min away,Very Little,1961,15 min away,Good,Good,Large","A Lot,Very Low,20 min away,1400 square feet,High,25 min away,A Little,1992,20 min away,Very Bad,Bad,Small",1,17478,2022-01-25 23:42:18,10080
5dd73f496ca7e76e32b1aa16,ma_choice_v3_pilot3,5dd73f496ca7e76e32b1aa16,1,0,-1,-1,"Size of yard,Noise pollution,Amount of natural light,Year building was built,Reputation of closest school,Amount of traffic,Proximity to cafes/restaurants,Proximity to public transportation,Quality of heat/AC system,Size of home,Amount of crime in neighborhood,Proximity to parks","Medium,Very Low,A Little,1972,Good,Very Little,5 min away,5 min away,Good,1300 square feet,High,15 min away","Very Large,Low,Very Little,2001,Very Good,A Moderate Amount,20 min away,25 min away,Bad,700 square feet,Moderate,25 min away",1,14888,2022-01-25 23:42:19,10081
5dd6861c070fdc6179d8003e,ma_choice_v3_pilot3,5dd6861c070fdc6179d8003e,27,0,-1,-1,"Size of yard,Year building was built,Quality of heat/AC system,Size of home,Proximity to cafes/restaurants,Amount of natural light,Amount of crime in neighborhood,Reputation of closest school,Proximity to public transportation,Noise pollution,Amount of traffic,Proximity to parks","Medium,1989,Bad,1000 square feet,20 min away,Very Little,Moderate,Good,25 min away,High,Very Little,10 min away","None,1963,Good,1600 square feet,5 min away,A Lot,Very Low,Very Bad,5 min away,Low,A Lot,25 min away",1,7470,2022-01-25 23:42:22,10082
5c112b5d8124060001bfa35f,ma_choice_v3_pilot3,5c112b5d8124060001bfa35f,29,0,-1,-1,"Size of yard,Amount of traffic,Amount of natural light,Noise pollution,Proximity to cafes/restaurants,Proximity to public transportation,Proximity to parks,Size of home,Year building was built,Quality of heat/AC system,Reputation of closest school,Amount of crime in neighborhood","Medium,A Little,A Lot,Low,15 min away,20 min away,5 min away,1600 square feet,2003,Good,Bad,Very Low","Small,A Moderate Amount,A Moderate Amount,Very Low,25 min away,10 min away,10 min away,1500 square feet,1991,Very Bad,Good,Moderate",0,9238,2022-01-25 23:42:27,10083
5af5bcf9b4dfd600018fc68e,ma_choice_v3_pilot3,5af5bcf9b4dfd600018fc68e,0,0,-1,-1,"Amount of natural light,Proximity to cafes/restaurants,Size of home,Proximity to public transportation,Amount of crime in neighborhood,Quality of heat/AC system,Noise pollution,Reputation of closest school,Proximity to parks,Amount of traffic,Year building was built,Size of yard","Very Little,15 min away,1600 square feet,5 min away,Low,Good,Moderate,Very Bad,15 min away,A Lot,1981,Large","A Lot,5 min away,600 square feet,25 min away,Moderate,Very Bad,High,Bad,5 min away,A Moderate Amount,2003,Very Large",0,29978,2022-01-25 23:42:27,10084
5dd6861c070fdc6179d8003e,ma_choice_v3_pilot3,5dd6861c070fdc6179d8003e,28,0,-1,-1,"Proximity to cafes/restaurants,Noise pollution,Proximity to public transportation,Amount of crime in neighborhood,Amount of natural light,Amount of traffic,Reputation of closest school,Year building was built,Size of yard,Proximity to parks,Size of home,Quality of heat/AC system","15 min away,High,15 min away,Low,A Moderate Amount,A Little,Very Good,2012,Medium,10 min away,1800 square feet,Good","25 min away,Very High,5 min away,Very Low,A Little,Very Little,Good,1986,Small,5 min away,1200 square feet,Very Good",0,9132,2022-01-25 23:42:32,10085
5f202fb60bd98f087818ea51,ma_choice_v3_pilot3,5f202fb60bd98f087818ea51,5,1,-1,-1,"Amount of traffic,Noise pollution,Amount of natural light,Size of yard,Reputation of closest school,Proximity to parks,Size of home,Proximity to public transportation,Year building was built,Proximity to cafes/restaurants,Quality of heat/AC system,Amount of crime in neighborhood","A Moderate Amount,Very High,A Moderate Amount,Very Large,Moderate,5 min away,1200 square feet,5 min away,2013,10 min away,Good,High","A Lot,Very Low,A Lot,Medium,Very Bad,20 min away,1600 square feet,15 min away,1979,5 min away,Very Good,Low",1,16414,2022-01-25 23:42:35,10086
5c112b5d8124060001bfa35f,ma_choice_v3_pilot3,5c112b5d8124060001bfa35f,30,0,-1,-1,"Proximity to public transportation,Amount of crime in neighborhood,Amount of traffic,Reputation of closest school,Amount of natural light,Quality of heat/AC system,Size of yard,Size of home,Year building was built,Proximity to parks,Noise pollution,Proximity to cafes/restaurants","20 min away,Moderate,A Moderate Amount,Good,A Moderate Amount,Moderate,None,700 square feet,1993,25 min away,High,15 min away","25 min away,High,A Little,Very Bad,A Little,Very Bad,Very Large,1100 square feet,2010,20 min away,Very Low,20 min away",0,7782,2022-01-25 23:42:36,10087
5dd6861c070fdc6179d8003e,ma_choice_v3_pilot3,5dd6861c070fdc6179d8003e,29,0,-1,-1,"Reputation of closest school,Proximity to public transportation,Proximity to cafes/restaurants,Year building was built,Amount of traffic,Noise pollution,Amount of crime in neighborhood,Size of yard,Size of home,Quality of heat/AC system,Amount of natural light,Proximity to parks","Very Bad,5 min away,10 min away,1999,A Moderate Amount,High,Low,Large,1000 square feet,Moderate,Very Little,20 min away","Moderate,25 min away,5 min away,1967,A Little,Very Low,Very High,None,1800 square feet,Bad,A Little,25 min away",0,7573,2022-01-25 23:42:40,10088
5dd73f496ca7e76e32b1aa16,ma_choice_v3_pilot3,5dd73f496ca7e76e32b1aa16,2,0,-1,-1,"Proximity to parks,Size of home,Size of yard,Amount of natural light,Amount of traffic,Proximity to public transportation,Quality of heat/AC system,Proximity to cafes/restaurants,Year building was built,Noise pollution,Reputation of closest school,Amount of crime in neighborhood","20 min away,700 square feet,Medium,A Little,A Little,10 min away,Very Bad,15 min away,1969,Moderate,Good,Very Low","10 min away,1200 square feet,Small,A Lot,Very Little,25 min away,Very Good,10 min away,1996,Very Low,Very Good,Very High",1,20701,2022-01-25 23:42:41,10089
5af5bcf9b4dfd600018fc68e,ma_choice_v3_pilot3,5af5bcf9b4dfd600018fc68e,1,0,-1,-1,"Year building was built,Size of home,Amount of traffic,Proximity to cafes/restaurants,Size of yard,Amount of crime in neighborhood,Noise pollution,Quality of heat/AC system,Proximity to public transportation,Amount of natural light,Reputation of closest school,Proximity to parks","1978,1000 square feet,A Lot,5 min away,Medium,High,High,Moderate,15 min away,Very Little,Very Good,20 min away","2015,600 square feet,Very Little,10 min away,Large,Very High,Very Low,Good,25 min away,A Little,Good,15 min away",1,14227,2022-01-25 23:42:42,10090
5c112b5d8124060001bfa35f,ma_choice_v3_pilot3,5c112b5d8124060001bfa35f,31,0,-1,-1,"Proximity to parks,Size of home,Year building was built,Quality of heat/AC system,Proximity to public transportation,Amount of natural light,Proximity to cafes/restaurants,Amount of traffic,Size of yard,Noise pollution,Amount of crime in neighborhood,Reputation of closest school","10 min away,1500 square feet,1971,Very Bad,20 min away,A Moderate Amount,10 min away,A Little,Large,Very Low,Very Low,Moderate","25 min away,1800 square feet,2000,Bad,5 min away,A Little,5 min away,A Lot,Medium,Low,Moderate,Very Bad",0,7686,2022-01-25 23:42:44,10091
5dd6861c070fdc6179d8003e,ma_choice_v3_pilot3,5dd6861c070fdc6179d8003e,30,0,-1,-1,"Noise pollution,Size of yard,Proximity to parks,Quality of heat/AC system,Proximity to cafes/restaurants,Size of home,Amount of natural light,Amount of traffic,Proximity to public transportation,Reputation of closest school,Amount of crime in neighborhood,Year building was built","Moderate,Medium,5 min away,Moderate,5 min away,600 square feet,A Lot,A Lot,10 min away,Very Bad,Very High,1992","Very Low,Small,15 min away,Bad,15 min away,1300 square feet,A Little,Very Little,25 min away,Moderate,Low,1973",1,7474,2022-01-25 23:42:49,10092
5c112b5d8124060001bfa35f,ma_choice_v3_pilot3,5c112b5d8124060001bfa35f,32,0,-1,-1,"Proximity to parks,Amount of natural light,Amount of crime in neighborhood,Year building was built,Noise pollution,Proximity to cafes/restaurants,Reputation of closest school,Amount of traffic,Proximity to public transportation,Size of home,Size of yard,Quality of heat/AC system","25 min away,A Lot,High,2005,Low,20 min away,Very Bad,A Little,25 min away,1800 square feet,None,Bad","20 min away,A Little,Very High,1970,Moderate,10 min away,Bad,A Lot,10 min away,1400 square feet,Large,Very Good",0,7676,2022-01-25 23:42:53,10093
5dd73f496ca7e76e32b1aa16,ma_choice_v3_pilot3,5dd73f496ca7e76e32b1aa16,3,0,-1,-1,"Amount of crime in neighborhood,Year building was built,Quality of heat/AC system,Reputation of closest school,Size of home,Size of yard,Proximity to parks,Proximity to public transportation,Noise pollution,Amount of traffic,Proximity to cafes/restaurants,Amount of natural light","Very High,1957,Moderate,Bad,700 square feet,None,5 min away,20 min away,Low,A Moderate Amount,10 min away,A Lot","High,1993,Bad,Good,1700 square feet,Medium,10 min away,10 min away,High,Very Little,15 min away,A Little",1,12735,2022-01-25 23:42:55,10094
5dd6861c070fdc6179d8003e,ma_choice_v3_pilot3,5dd6861c070fdc6179d8003e,31,0,-1,-1,"Proximity to cafes/restaurants,Reputation of closest school,Quality of heat/AC system,Size of home,Amount of natural light,Amount of traffic,Noise pollution,Amount of crime in neighborhood,Proximity to public transportation,Size of yard,Year building was built,Proximity to parks","15 min away,Good,Bad,600 square feet,A Little,Very Little,High,Moderate,10 min away,Large,1992,10 min away","10 min away,Moderate,Good,1700 square feet,A Moderate Amount,A Lot,Very Low,Very Low,20 min away,Small,1971,5 min away",1,7462,2022-01-25 23:42:57,10095
5af5bcf9b4dfd600018fc68e,ma_choice_v3_pilot3,5af5bcf9b4dfd600018fc68e,2,0,-1,-1,"Size of yard,Reputation of closest school,Amount of crime in neighborhood,Quality of heat/AC system,Proximity to public transportation,Year building was built,Proximity to parks,Amount of traffic,Noise pollution,Size of home,Proximity to cafes/restaurants,Amount of natural light","None,Bad,Low,Very Good,5 min away,1976,5 min away,Very Little,Moderate,600 square feet,10 min away,A Moderate Amount","Small,Moderate,Very High,Good,25 min away,1995,25 min away,A Lot,High,900 square feet,5 min away,A Lot",1,17228,2022-01-25 23:43:01,10096
5c112b5d8124060001bfa35f,ma_choice_v3_pilot3,5c112b5d8124060001bfa35f,33,0,-1,-1,"Noise pollution,Size of home,Quality of heat/AC system,Size of yard,Amount of crime in neighborhood,Proximity to cafes/restaurants,Proximity to public transportation,Amount of natural light,Year building was built,Proximity to parks,Reputation of closest school,Amount of traffic","Very High,1600 square feet,Very Bad,Large,Low,15 min away,5 min away,A Moderate Amount,1996,15 min away,Very Good,A Little","High,1200 square feet,Very Good,Very Large,Very Low,5 min away,10 min away,A Lot,1958,25 min away,Moderate,A Moderate Amount",1,8574,2022-01-25 23:43:03,10097
5dd6861c070fdc6179d8003e,ma_choice_v3_pilot3,5dd6861c070fdc6179d8003e,32,0,-1,-1,"Amount of traffic,Size of home,Reputation of closest school,Proximity to public transportation,Year building was built,Size of yard,Quality of heat/AC system,Amount of natural light,Proximity to cafes/restaurants,Proximity to parks,Amount of crime in neighborhood,Noise pollution","A Moderate Amount,800 square feet,Good,10 min away,2009,Large,Very Bad,Very Little,5 min away,15 min away,High,High","A Lot,1500 square feet,Very Bad,5 min away,1996,None,Moderate,A Moderate Amount,20 min away,20 min away,Very Low,Very High",1,7794,2022-01-25 23:43:06,10098
5f202fb60bd98f087818ea51,ma_choice_v3_pilot3,5f202fb60bd98f087818ea51,6,1,-1,-1,"Amount of traffic,Year building was built,Quality of heat/AC system,Size of home,Size of yard,Proximity to parks,Proximity to cafes/restaurants,Proximity to public transportation,Amount of crime in neighborhood,Reputation of closest school,Amount of natural light,Noise pollution","A Little,2015,Bad,900 square feet,Medium,25 min away,20 min away,25 min away,Moderate,Very Bad,A Little,Very High","A Lot,1964,Very Good,1300 square feet,Small,20 min away,15 min away,20 min away,Low,Bad,A Moderate Amount,Very Low",1,31982,2022-01-25 23:43:08,10099
5c112b5d8124060001bfa35f,ma_choice_v3_pilot3,5c112b5d8124060001bfa35f,34,0,-1,-1,"Noise pollution,Amount of traffic,Size of home,Amount of crime in neighborhood,Proximity to public transportation,Proximity to parks,Amount of natural light,Reputation of closest school,Quality of heat/AC system,Size of yard,Year building was built,Proximity to cafes/restaurants","Moderate,A Little,1400 square feet,High,15 min away,20 min away,A Little,Bad,Bad,None,1990,10 min away","Very High,A Lot,600 square feet,Moderate,5 min away,10 min away,A Lot,Very Bad,Moderate,Large,2013,20 min away",1,7701,2022-01-25 23:43:11,10100
5af5bcf9b4dfd600018fc68e,ma_choice_v3_pilot3,5af5bcf9b4dfd600018fc68e,3,0,-1,-1,"Noise pollution,Size of home,Amount of crime in neighborhood,Reputation of closest school,Size of yard,Year building was built,Amount of natural light,Amount of traffic,Proximity to parks,Quality of heat/AC system,Proximity to cafes/restaurants,Proximity to public transportation","Very High,1000 square feet,High,Moderate,Very Large,1952,A Lot,A Moderate Amount,20 min away,Good,25 min away,25 min away","High,1400 square feet,Very Low,Very Good,Large,1981,A Moderate Amount,Very Little,25 min away,Very Good,5 min away,5 min away",1,9989,2022-01-25 23:43:12,10101
5dd6861c070fdc6179d8003e,ma_choice_v3_pilot3,5dd6861c070fdc6179d8003e,33,0,-1,-1,"Amount of crime in neighborhood,Proximity to cafes/restaurants,Proximity to parks,Amount of natural light,Noise pollution,Size of yard,Proximity to public transportation,Quality of heat/AC system,Year building was built,Size of home,Reputation of closest school,Amount of traffic","Very Low,20 min away,15 min away,Very Little,Low,Small,5 min away,Very Bad,1959,800 square feet,Bad,A Lot","Very High,15 min away,20 min away,A Lot,Very High,Large,25 min away,Very Good,1989,1100 square feet,Very Good,A Little",0,7536,2022-01-25 23:43:15,10102
5c112b5d8124060001bfa35f,ma_choice_v3_pilot3,5c112b5d8124060001bfa35f,35,0,-1,-1,"Amount of traffic,Year building was built,Noise pollution,Size of yard,Amount of crime in neighborhood,Reputation of closest school,Amount of natural light,Proximity to parks,Size of home,Proximity to public transportation,Proximity to cafes/restaurants,Quality of heat/AC system","Very Little,2019,High,Large,Moderate,Bad,A Moderate Amount,10 min away,900 square feet,15 min away,15 min away,Very Good","A Moderate Amount,1956,Very Low,Small,Very High,Good,Very Little,5 min away,1600 square feet,20 min away,20 min away,Good",0,7855,2022-01-25 23:43:20,10103
5f202fb60bd98f087818ea51,ma_choice_v3_pilot3,5f202fb60bd98f087818ea51,7,1,-1,-1,"Amount of crime in neighborhood,Size of home,Proximity to cafes/restaurants,Proximity to parks,Quality of heat/AC system,Amount of natural light,Amount of traffic,Size of yard,Proximity to public transportation,Year building was built,Noise pollution,Reputation of closest school","Low,1200 square feet,5 min away,5 min away,Good,A Little,A Little,Medium,25 min away,2003,Low,Moderate","Moderate,1000 square feet,25 min away,20 min away,Very Bad,Very Little,A Lot,None,15 min away,2016,Very High,Very Bad",0,13332,2022-01-25 23:43:22,10104
5dd73f496ca7e76e32b1aa16,ma_choice_v3_pilot3,5dd73f496ca7e76e32b1aa16,4,0,-1,-1,"Proximity to public transportation,Proximity to parks,Size of yard,Quality of heat/AC system,Year building was built,Reputation of closest school,Amount of traffic,Amount of crime in neighborhood,Noise pollution,Size of home,Proximity to cafes/restaurants,Amount of natural light","15 min away,25 min away,Small,Good,1987,Very Good,A Lot,Very High,Low,1500 square feet,20 min away,A Moderate Amount","20 min away,20 min away,None,Bad,1951,Good,A Moderate Amount,Very Low,Moderate,1400 square feet,5 min away,Very Little",0,27233,2022-01-25 23:43:23,10105
5dd6861c070fdc6179d8003e,ma_choice_v3_pilot3,5dd6861c070fdc6179d8003e,34,0,-1,-1,"Year building was built,Amount of traffic,Amount of natural light,Proximity to parks,Size of yard,Proximity to cafes/restaurants,Noise pollution,Quality of heat/AC system,Size of home,Reputation of closest school,Proximity to public transportation,Amount of crime in neighborhood","1970,A Moderate Amount,Very Little,10 min away,Very Large,25 min away,High,Bad,1100 square feet,Very Good,25 min away,Low","1993,Very Little,A Lot,15 min away,Medium,10 min away,Low,Moderate,1400 square feet,Very Bad,10 min away,Very High",0,7520,2022-01-25 23:43:23,10106
5af5bcf9b4dfd600018fc68e,ma_choice_v3_pilot3,5af5bcf9b4dfd600018fc68e,4,0,-1,-1,"Proximity to cafes/restaurants,Reputation of closest school,Noise pollution,Proximity to public transportation,Size of home,Quality of heat/AC system,Amount of natural light,Year building was built,Amount of crime in neighborhood,Proximity to parks,Amount of traffic,Size of yard","20 min away,Very Bad,Moderate,10 min away,1300 square feet,Good,A Moderate Amount,1998,Very Low,10 min away,Very Little,Very Large","25 min away,Very Good,Very High,20 min away,1100 square feet,Bad,A Little,1951,Low,25 min away,A Moderate Amount,Medium",0,11563,2022-01-25 23:43:24,10107
5c112b5d8124060001bfa35f,ma_choice_v3_pilot3,5c112b5d8124060001bfa35f,36,0,-1,-1,"Size of home,Noise pollution,Reputation of closest school,Proximity to public transportation,Year building was built,Amount of crime in neighborhood,Amount of natural light,Amount of traffic,Size of yard,Quality of heat/AC system,Proximity to parks,Proximity to cafes/restaurants","1200 square feet,Very High,Moderate,5 min away,1951,Moderate,A Little,A Moderate Amount,Medium,Good,10 min away,5 min away","1300 square feet,Low,Good,20 min away,2004,Low,A Lot,A Little,Small,Very Good,5 min away,25 min away",1,8930,2022-01-25 23:43:30,10108
5dd6861c070fdc6179d8003e,ma_choice_v3_pilot3,5dd6861c070fdc6179d8003e,35,0,-1,-1,"Size of home,Proximity to cafes/restaurants,Quality of heat/AC system,Amount of natural light,Size of yard,Proximity to parks,Reputation of closest school,Noise pollution,Year building was built,Proximity to public transportation,Amount of crime in neighborhood,Amount of traffic","1300 square feet,25 min away,Good,A Moderate Amount,None,15 min away,Good,Moderate,2002,20 min away,Very High,A Moderate Amount","1800 square feet,5 min away,Moderate,Very Little,Large,10 min away,Very Good,High,1992,15 min away,High,A Little",1,14199,2022-01-25 23:43:38,10109
5af5bcf9b4dfd600018fc68e,ma_choice_v3_pilot3,5af5bcf9b4dfd600018fc68e,5,0,-1,-1,"Size of yard,Noise pollution,Amount of natural light,Amount of traffic,Proximity to public transportation,Year building was built,Proximity to cafes/restaurants,Reputation of closest school,Amount of crime in neighborhood,Size of home,Quality of heat/AC system,Proximity to parks","Large,Low,A Lot,Very Little,5 min away,1962,5 min away,Very Bad,Low,1500 square feet,Very Bad,10 min away","Very Large,Very High,Very Little,A Little,15 min away,2010,25 min away,Very Good,Moderate,900 square feet,Very Good,5 min away",0,13705,2022-01-25 23:43:39,10110
5c112b5d8124060001bfa35f,ma_choice_v3_pilot3,5c112b5d8124060001bfa35f,37,0,-1,-1,"Size of home,Amount of natural light,Proximity to parks,Amount of crime in neighborhood,Proximity to public transportation,Proximity to cafes/restaurants,Size of yard,Year building was built,Noise pollution,Amount of traffic,Reputation of closest school,Quality of heat/AC system","1500 square feet,A Lot,15 min away,Very High,5 min away,10 min away,Small,1974,Very High,A Lot,Moderate,Bad","1400 square feet,Very Little,20 min away,Moderate,20 min away,20 min away,Medium,1951,High,Very Little,Bad,Good",1,8664,2022-01-25 23:43:40,10111
5dd6861c070fdc6179d8003e,ma_choice_v3_pilot3,5dd6861c070fdc6179d8003e,36,0,-1,-1,"Size of home,Proximity to parks,Proximity to cafes/restaurants,Amount of natural light,Size of yard,Amount of traffic,Noise pollution,Quality of heat/AC system,Reputation of closest school,Amount of crime in neighborhood,Proximity to public transportation,Year building was built","1700 square feet,25 min away,20 min away,Very Little,Large,A Little,Very High,Very Good,Good,Low,10 min away,1970","800 square feet,5 min away,10 min away,A Moderate Amount,None,A Moderate Amount,Very Low,Moderate,Very Good,Very High,15 min away,2016",0,7457,2022-01-25 23:43:47,10112
5c112b5d8124060001bfa35f,ma_choice_v3_pilot3,5c112b5d8124060001bfa35f,38,0,-1,-1,"Proximity to parks,Year building was built,Size of yard,Amount of traffic,Amount of crime in neighborhood,Amount of natural light,Noise pollution,Proximity to cafes/restaurants,Size of home,Proximity to public transportation,Quality of heat/AC system,Reputation of closest school","5 min away,1966,Medium,A Lot,Moderate,Very Little,Low,10 min away,1100 square feet,15 min away,Very Bad,Good","15 min away,1997,Very Large,Very Little,High,A Lot,High,15 min away,1200 square feet,20 min away,Good,Very Good",0,7771,2022-01-25 23:43:49,10113
5dd73f496ca7e76e32b1aa16,ma_choice_v3_pilot3,5dd73f496ca7e76e32b1aa16,5,0,-1,-1,"Proximity to public transportation,Size of yard,Amount of natural light,Quality of heat/AC system,Reputation of closest school,Proximity to cafes/restaurants,Amount of crime in neighborhood,Year building was built,Amount of traffic,Noise pollution,Proximity to parks,Size of home","25 min away,Large,A Moderate Amount,Very Good,Moderate,10 min away,Moderate,1982,A Little,Low,25 min away,1400 square feet","10 min away,Small,A Lot,Moderate,Very Good,20 min away,Very High,2002,A Moderate Amount,Very Low,20 min away,1000 square feet",1,27057,2022-01-25 23:43:51,10114
5dd6861c070fdc6179d8003e,ma_choice_v3_pilot3,5dd6861c070fdc6179d8003e,37,0,-1,-1,"Year building was built,Amount of traffic,Amount of crime in neighborhood,Amount of natural light,Reputation of closest school,Noise pollution,Size of home,Size of yard,Proximity to parks,Proximity to public transportation,Quality of heat/AC system,Proximity to cafes/restaurants","2000,A Little,Moderate,A Little,Moderate,High,1700 square feet,Very Large,10 min away,10 min away,Bad,25 min away","1970,A Moderate Amount,Very High,A Lot,Very Bad,Very Low,1000 square feet,Large,5 min away,5 min away,Very Bad,5 min away",0,7593,2022-01-25 23:43:55,10115
5c112b5d8124060001bfa35f,ma_choice_v3_pilot3,5c112b5d8124060001bfa35f,39,0,-1,-1,"Reputation of closest school,Size of yard,Quality of heat/AC system,Size of home,Amount of traffic,Proximity to cafes/restaurants,Proximity to parks,Amount of crime in neighborhood,Amount of natural light,Year building was built,Noise pollution,Proximity to public transportation","Bad,Large,Very Good,800 square feet,Very Little,5 min away,5 min away,Very High,A Lot,1970,High,25 min away","Moderate,Very Large,Very Bad,1000 square feet,A Lot,25 min away,10 min away,Very Low,A Little,1995,Low,10 min away",1,7769,2022-01-25 23:43:57,10116
5f202fb60bd98f087818ea51,ma_choice_v3_pilot3,5f202fb60bd98f087818ea51,8,1,-1,-1,"Year building was built,Proximity to public transportation,Size of home,Proximity to parks,Quality of heat/AC system,Reputation of closest school,Amount of traffic,Proximity to cafes/restaurants,Amount of crime in neighborhood,Size of yard,Amount of natural light,Noise pollution","1994,10 min away,1300 square feet,5 min away,Very Bad,Good,Very Little,5 min away,Very Low,Very Large,A Little,Very High","1967,25 min away,1800 square feet,15 min away,Bad,Moderate,A Lot,20 min away,High,None,A Moderate Amount,Very Low",1,35209,2022-01-25 23:43:59,10117
5af5bcf9b4dfd600018fc68e,ma_choice_v3_pilot3,5af5bcf9b4dfd600018fc68e,6,0,-1,-1,"Size of home,Amount of crime in neighborhood,Proximity to public transportation,Amount of traffic,Proximity to parks,Quality of heat/AC system,Reputation of closest school,Amount of natural light,Year building was built,Size of yard,Noise pollution,Proximity to cafes/restaurants","1000 square feet,Very Low,15 min away,Very Little,25 min away,Very Bad,Good,A Little,1981,Large,High,5 min away","1600 square feet,Very High,10 min away,A Moderate Amount,5 min away,Very Good,Moderate,A Moderate Amount,1956,None,Very Low,25 min away",0,22097,2022-01-25 23:44:02,10118
5dd6861c070fdc6179d8003e,ma_choice_v3_pilot3,5dd6861c070fdc6179d8003e,38,0,-1,-1,"Amount of crime in neighborhood,Proximity to cafes/restaurants,Year building was built,Amount of natural light,Reputation of closest school,Quality of heat/AC system,Size of yard,Size of home,Proximity to public transportation,Amount of traffic,Proximity to parks,Noise pollution","Low,15 min away,1962,A Little,Moderate,Good,None,1500 square feet,25 min away,A Little,5 min away,Very Low","High,25 min away,2015,A Moderate Amount,Good,Moderate,Large,1200 square feet,15 min away,Very Little,10 min away,High",0,7516,2022-01-25 23:44:04,10119
5c112b5d8124060001bfa35f,ma_choice_v3_pilot3,5c112b5d8124060001bfa35f,40,0,-1,-1,"Quality of heat/AC system,Size of home,Amount of crime in neighborhood,Amount of traffic,Amount of natural light,Proximity to parks,Size of yard,Year building was built,Proximity to cafes/restaurants,Proximity to public transportation,Noise pollution,Reputation of closest school","Very Good,600 square feet,High,Very Little,Very Little,15 min away,Very Large,1994,15 min away,20 min away,Very Low,Moderate","Bad,1600 square feet,Moderate,A Little,A Moderate Amount,10 min away,Small,2015,20 min away,5 min away,Very High,Bad",1,8546,2022-01-25 23:44:07,10120
5dd6861c070fdc6179d8003e,ma_choice_v3_pilot3,5dd6861c070fdc6179d8003e,39,0,-1,-1,"Year building was built,Reputation of closest school,Proximity to cafes/restaurants,Noise pollution,Quality of heat/AC system,Size of home,Amount of natural light,Proximity to parks,Amount of traffic,Size of yard,Proximity to public transportation,Amount of crime in neighborhood","1966,Very Bad,10 min away,High,Very Good,800 square feet,Very Little,15 min away,A Moderate Amount,Very Large,5 min away,High","2000,Good,15 min away,Very High,Very Bad,1000 square feet,A Lot,5 min away,Very Little,Medium,10 min away,Low",1,7525,2022-01-25 23:44:12,10121
5af5bcf9b4dfd600018fc68e,ma_choice_v3_pilot3,5af5bcf9b4dfd600018fc68e,7,0,-1,-1,"Year building was built,Size of yard,Amount of crime in neighborhood,Proximity to public transportation,Proximity to parks,Noise pollution,Reputation of closest school,Quality of heat/AC system,Amount of traffic,Size of home,Proximity to cafes/restaurants,Amount of natural light","2015,Very Large,High,5 min away,25 min away,Very Low,Moderate,Good,A Moderate Amount,900 square feet,15 min away,A Moderate Amount","1961,Medium,Very High,20 min away,20 min away,Moderate,Very Good,Bad,A Lot,1500 square feet,5 min away,A Little",0,10650,2022-01-25 23:44:14,10122
5dd73f496ca7e76e32b1aa16,ma_choice_v3_pilot3,5dd73f496ca7e76e32b1aa16,6,0,-1,-1,"Reputation of closest school,Year building was built,Amount of traffic,Amount of crime in neighborhood,Proximity to cafes/restaurants,Quality of heat/AC system,Amount of natural light,Proximity to public transportation,Noise pollution,Proximity to parks,Size of home,Size of yard","Bad,1962,Very Little,Moderate,25 min away,Very Bad,A Moderate Amount,25 min away,Very High,20 min away,1400 square feet,Medium","Very Good,1977,A Little,High,10 min away,Good,A Little,20 min away,Moderate,5 min away,1200 square feet,Very Large",1,23181,2022-01-25 23:44:15,10123
5f202fb60bd98f087818ea51,ma_choice_v3_pilot3,5f202fb60bd98f087818ea51,9,1,-1,-1,"Reputation of closest school,Size of home,Quality of heat/AC system,Size of yard,Year building was built,Amount of traffic,Amount of natural light,Proximity to public transportation,Proximity to cafes/restaurants,Noise pollution,Proximity to parks,Amount of crime in neighborhood","Very Good,800 square feet,Moderate,None,2018,Very Little,A Lot,10 min away,5 min away,Low,20 min away,Very Low","Bad,1100 square feet,Bad,Large,1973,A Lot,Very Little,25 min away,10 min away,Moderate,10 min away,Moderate",0,15905,2022-01-25 23:44:15,10124
5c112b5d8124060001bfa35f,ma_choice_v3_pilot3,5c112b5d8124060001bfa35f,41,0,-1,-1,"Amount of crime in neighborhood,Quality of heat/AC system,Noise pollution,Amount of traffic,Reputation of closest school,Proximity to parks,Amount of natural light,Proximity to public transportation,Size of yard,Year building was built,Size of home,Proximity to cafes/restaurants","Very Low,Very Good,Low,A Moderate Amount,Good,20 min away,A Lot,5 min away,None,1964,1400 square feet,10 min away","Moderate,Moderate,Very High,A Little,Moderate,25 min away,A Moderate Amount,25 min away,Very Large,1998,1200 square feet,5 min away",0,11423,2022-01-25 23:44:19,10125
5dd6861c070fdc6179d8003e,ma_choice_v3_pilot3,5dd6861c070fdc6179d8003e,40,0,-1,-1,"Amount of traffic,Noise pollution,Proximity to parks,Proximity to cafes/restaurants,Amount of natural light,Amount of crime in neighborhood,Year building was built,Reputation of closest school,Size of yard,Quality of heat/AC system,Proximity to public transportation,Size of home","A Moderate Amount,Moderate,5 min away,20 min away,A Little,High,1983,Very Bad,Small,Very Bad,10 min away,1300 square feet","Very Little,High,10 min away,15 min away,Very Little,Moderate,2009,Moderate,None,Moderate,15 min away,1600 square feet",1,8538,2022-01-25 23:44:22,10126
5af5bcf9b4dfd600018fc68e,ma_choice_v3_pilot3,5af5bcf9b4dfd600018fc68e,8,0,-1,-1,"Size of yard,Noise pollution,Reputation of closest school,Year building was built,Proximity to parks,Proximity to public transportation,Size of home,Amount of crime in neighborhood,Proximity to cafes/restaurants,Quality of heat/AC system,Amount of natural light,Amount of traffic","Large,Very High,Moderate,1965,20 min away,10 min away,1300 square feet,Moderate,15 min away,Very Good,A Moderate Amount,Very Little","Small,Low,Bad,1995,5 min away,25 min away,700 square feet,Low,20 min away,Bad,Very Little,A Little",0,9822,2022-01-25 23:44:25,10127
5c112b5d8124060001bfa35f,ma_choice_v3_pilot3,5c112b5d8124060001bfa35f,42,0,-1,-1,"Proximity to cafes/restaurants,Quality of heat/AC system,Amount of crime in neighborhood,Proximity to parks,Amount of natural light,Size of yard,Year building was built,Size of home,Noise pollution,Proximity to public transportation,Amount of traffic,Reputation of closest school","25 min away,Moderate,Very Low,25 min away,A Lot,Very Large,2004,1100 square feet,Very Low,10 min away,Very Little,Bad","15 min away,Bad,Very High,20 min away,Very Little,Large,1985,900 square feet,Low,5 min away,A Little,Very Good",0,8290,2022-01-25 23:44:29,10128
5dd6861c070fdc6179d8003e,ma_choice_v3_pilot3,5dd6861c070fdc6179d8003e,41,0,-1,-1,"Size of yard,Year building was built,Noise pollution,Proximity to parks,Proximity to cafes/restaurants,Amount of traffic,Quality of heat/AC system,Amount of natural light,Reputation of closest school,Amount of crime in neighborhood,Size of home,Proximity to public transportation","Small,1955,High,10 min away,15 min away,A Lot,Very Bad,A Moderate Amount,Good,Very Low,700 square feet,15 min away","None,1981,Low,20 min away,5 min away,Very Little,Good,Very Little,Moderate,High,1700 square feet,25 min away",0,7597,2022-01-25 23:44:31,10129
5dd73f496ca7e76e32b1aa16,ma_choice_v3_pilot3,5dd73f496ca7e76e32b1aa16,7,0,-1,-1,"Amount of natural light,Amount of traffic,Size of home,Noise pollution,Size of yard,Quality of heat/AC system,Reputation of closest school,Year building was built,Proximity to parks,Proximity to cafes/restaurants,Proximity to public transportation,Amount of crime in neighborhood","A Moderate Amount,Very Little,1700 square feet,Moderate,Large,Very Good,Good,1963,15 min away,25 min away,15 min away,Very Low","A Lot,A Moderate Amount,1200 square feet,Very High,None,Very Bad,Very Bad,1978,20 min away,5 min away,20 min away,Moderate",0,19991,2022-01-25 23:44:36,10130
5c112b5d8124060001bfa35f,ma_choice_v3_pilot3,5c112b5d8124060001bfa35f,43,0,-1,-1,"Noise pollution,Amount of natural light,Proximity to cafes/restaurants,Amount of crime in neighborhood,Amount of traffic,Reputation of closest school,Proximity to parks,Quality of heat/AC system,Size of home,Year building was built,Proximity to public transportation,Size of yard","Low,A Little,25 min away,High,A Lot,Moderate,10 min away,Very Good,600 square feet,1984,10 min away,Large","Very High,Very Little,5 min away,Low,A Little,Very Good,20 min away,Bad,1200 square feet,1971,15 min away,Small",1,7692,2022-01-25 23:44:37,10131
5af5bcf9b4dfd600018fc68e,ma_choice_v3_pilot3,5af5bcf9b4dfd600018fc68e,9,0,-1,-1,"Noise pollution,Amount of natural light,Amount of crime in neighborhood,Amount of traffic,Reputation of closest school,Proximity to parks,Size of yard,Size of home,Proximity to public transportation,Year building was built,Proximity to cafes/restaurants,Quality of heat/AC system","Moderate,A Little,High,A Moderate Amount,Good,25 min away,Medium,1600 square feet,20 min away,1999,10 min away,Bad","Very High,A Moderate Amount,Very Low,A Little,Bad,20 min away,Very Large,1000 square feet,5 min away,2010,20 min away,Very Good",1,12492,2022-01-25 23:44:38,10132
5dd6861c070fdc6179d8003e,ma_choice_v3_pilot3,5dd6861c070fdc6179d8003e,42,0,-1,-1,"Size of home,Amount of traffic,Amount of natural light,Size of yard,Proximity to cafes/restaurants,Year building was built,Proximity to parks,Amount of crime in neighborhood,Proximity to public transportation,Quality of heat/AC system,Noise pollution,Reputation of closest school","1500 square feet,A Little,Very Little,Very Large,25 min away,1969,25 min away,Moderate,5 min away,Very Good,Moderate,Moderate","1200 square feet,Very Little,A Little,None,20 min away,1997,5 min away,Very High,25 min away,Bad,Very Low,Bad",0,8923,2022-01-25 23:44:41,10133
5c112b5d8124060001bfa35f,ma_choice_v3_pilot3,5c112b5d8124060001bfa35f,44,0,-1,-1,"Size of home,Noise pollution,Proximity to cafes/restaurants,Proximity to public transportation,Reputation of closest school,Size of yard,Amount of traffic,Amount of crime in neighborhood,Year building was built,Proximity to parks,Quality of heat/AC system,Amount of natural light","700 square feet,Moderate,5 min away,5 min away,Very Good,Small,Very Little,Moderate,1979,25 min away,Moderate,A Lot","1300 square feet,Very Low,15 min away,15 min away,Very Bad,None,A Lot,Low,1966,5 min away,Very Bad,A Moderate Amount",1,7687,2022-01-25 23:44:46,10134
5dd6861c070fdc6179d8003e,ma_choice_v3_pilot3,5dd6861c070fdc6179d8003e,43,0,-1,-1,"Quality of heat/AC system,Noise pollution,Amount of natural light,Amount of traffic,Size of home,Proximity to public transportation,Amount of crime in neighborhood,Size of yard,Year building was built,Reputation of closest school,Proximity to cafes/restaurants,Proximity to parks","Good,Moderate,A Moderate Amount,A Little,1500 square feet,20 min away,Low,Very Large,1974,Bad,15 min away,10 min away","Very Bad,Low,Very Little,Very Little,700 square feet,10 min away,High,None,1987,Good,10 min away,25 min away",0,7566,2022-01-25 23:44:49,10135
