subject,version,assignmentId,trial,attribute,original_or_followup,signed_weights,full_or_lex,rating,least_preferred,most_preferred,rt,rt2,stamp,id
5dd6861c070fdc6179d8003e,ma_choice_v3_pilot3,5dd6861c070fdc6179d8003e,10,Amount of traffic,original,2,2,0,,,4437,,2022-01-25 23:51:20,2539
5c112b5d8124060001bfa35f,ma_choice_v3_pilot3,5c112b5d8124060001bfa35f,7,Amount of crime in neighborhood,original,2,2,89,,,5734,,2022-01-25 23:51:26,2540
5dd6861c070fdc6179d8003e,ma_choice_v3_pilot3,5dd6861c070fdc6179d8003e,3,Noise pollution,original,2,2,0,,,7562,,2022-01-25 23:51:28,2541
5c112b5d8124060001bfa35f,ma_choice_v3_pilot3,5c112b5d8124060001bfa35f,10,Amount of traffic,original,2,2,13,,,4489,,2022-01-25 23:51:30,2542
5dd6861c070fdc6179d8003e,ma_choice_v3_pilot3,5dd6861c070fdc6179d8003e,4,Reputation of closest school,original,2,2,0,,,3191,,2022-01-25 23:51:31,2543
5c112b5d8124060001bfa35f,ma_choice_v3_pilot3,5c112b5d8124060001bfa35f,2,Proximity to public transportation,original,2,2,0,,,3024,,2022-01-25 23:51:33,2544
5dd6861c070fdc6179d8003e,ma_choice_v3_pilot3,5dd6861c070fdc6179d8003e,0,Proximity to parks,original,2,2,0,,,2973,,2022-01-25 23:51:34,2545
5c112b5d8124060001bfa35f,ma_choice_v3_pilot3,5c112b5d8124060001bfa35f,8,Size of yard,original,2,2,0,,,2952,,2022-01-25 23:51:36,2546
5c112b5d8124060001bfa35f,ma_choice_v3_pilot3,5c112b5d8124060001bfa35f,3,Noise pollution,original,2,2,0,,,2656,,2022-01-25 23:51:39,2547
5dd6861c070fdc6179d8003e,ma_choice_v3_pilot3,5dd6861c070fdc6179d8003e,5,Amount of natural light,original,2,2,36,,,5737,,2022-01-25 23:51:39,2548
5dd6861c070fdc6179d8003e,ma_choice_v3_pilot3,5dd6861c070fdc6179d8003e,2,Proximity to public transportation,original,2,2,0,,,2996,,2022-01-25 23:51:42,2549
5c112b5d8124060001bfa35f,ma_choice_v3_pilot3,5c112b5d8124060001bfa35f,9,Quality of heat/AC system,original,2,2,50,,,3888,,2022-01-25 23:51:43,2550
5dd6861c070fdc6179d8003e,ma_choice_v3_pilot3,5dd6861c070fdc6179d8003e,8,Size of yard,original,2,2,0,,,2766,,2022-01-25 23:51:45,2551
5c112b5d8124060001bfa35f,ma_choice_v3_pilot3,5c112b5d8124060001bfa35f,4,Reputation of closest school,original,2,2,13,,,4163,,2022-01-25 23:51:47,2552
5c112b5d8124060001bfa35f,ma_choice_v3_pilot3,5c112b5d8124060001bfa35f,6,Year building was built,original,2,2,0,,,3170,,2022-01-25 23:51:50,2553
5dd6861c070fdc6179d8003e,ma_choice_v3_pilot3,5dd6861c070fdc6179d8003e,6,Year building was built,original,2,2,2,,,5105,,2022-01-25 23:51:50,2554
5c112b5d8124060001bfa35f,ma_choice_v3_pilot3,5c112b5d8124060001bfa35f,11,Size of home,original,2,2,4,,,2703,,2022-01-25 23:51:53,2555
5dd6861c070fdc6179d8003e,ma_choice_v3_pilot3,5dd6861c070fdc6179d8003e,9,Quality of heat/AC system,original,2,2,50,,,5271,,2022-01-25 23:51:56,2556
5c112b5d8124060001bfa35f,ma_choice_v3_pilot3,5c112b5d8124060001bfa35f,5,Amount of natural light,original,2,2,0,,,3241,,2022-01-25 23:51:56,2557
5c112b5d8124060001bfa35f,ma_choice_v3_pilot3,5c112b5d8124060001bfa35f,0,Proximity to parks,original,2,2,0,,,2883,,2022-01-25 23:51:59,2558
5dd6861c070fdc6179d8003e,ma_choice_v3_pilot3,5dd6861c070fdc6179d8003e,1,Proximity to cafes/restaurants,original,2,2,14,,,3735,,2022-01-25 23:51:59,2559
5c112b5d8124060001bfa35f,ma_choice_v3_pilot3,5c112b5d8124060001bfa35f,1,Proximity to cafes/restaurants,original,2,2,0,,,3009,,2022-01-25 23:52:02,2560
5dd6861c070fdc6179d8003e,ma_choice_v3_pilot3,5dd6861c070fdc6179d8003e,7,Amount of crime in neighborhood,original,2,2,87,,,7610,,2022-01-25 23:52:07,2561
5dd6861c070fdc6179d8003e,ma_choice_v3_pilot3,5dd6861c070fdc6179d8003e,11,Size of home,original,2,2,63,,,5177,,2022-01-25 23:52:12,2562
5c112b5d8124060001bfa35f,ma_choice_v3_pilot3,5c112b5d8124060001bfa35f,6,Year building was built,followup,2,2,,,,,,2022-01-25 23:52:16,2563
5c112b5d8124060001bfa35f,ma_choice_v3_pilot3,5c112b5d8124060001bfa35f,8,Size of yard,followup,2,2,,,,,,2022-01-25 23:52:16,2564
5c112b5d8124060001bfa35f,ma_choice_v3_pilot3,5c112b5d8124060001bfa35f,0,Proximity to parks,followup,2,2,,,,,,2022-01-25 23:52:16,2565
5c112b5d8124060001bfa35f,ma_choice_v3_pilot3,5c112b5d8124060001bfa35f,4,Reputation of closest school,followup,2,2,,,,,,2022-01-25 23:52:16,2566
5c112b5d8124060001bfa35f,ma_choice_v3_pilot3,5c112b5d8124060001bfa35f,5,Amount of natural light,followup,2,2,,,,,,2022-01-25 23:52:16,2567
5c112b5d8124060001bfa35f,ma_choice_v3_pilot3,5c112b5d8124060001bfa35f,7,Amount of crime in neighborhood,followup,2,2,,,,,,2022-01-25 23:52:16,2568
5c112b5d8124060001bfa35f,ma_choice_v3_pilot3,5c112b5d8124060001bfa35f,9,Quality of heat/AC system,followup,2,2,,,,,,2022-01-25 23:52:16,2569
5c112b5d8124060001bfa35f,ma_choice_v3_pilot3,5c112b5d8124060001bfa35f,10,Amount of traffic,followup,2,2,,,,,,2022-01-25 23:52:16,2570
5c112b5d8124060001bfa35f,ma_choice_v3_pilot3,5c112b5d8124060001bfa35f,3,Noise pollution,followup,2,2,,,,,,2022-01-25 23:52:16,2571
5c112b5d8124060001bfa35f,ma_choice_v3_pilot3,5c112b5d8124060001bfa35f,1,Proximity to cafes/restaurants,followup,2,2,,,,,,2022-01-25 23:52:16,2572
5c112b5d8124060001bfa35f,ma_choice_v3_pilot3,5c112b5d8124060001bfa35f,11,Size of home,followup,2,2,,,,,,2022-01-25 23:52:16,2573
5c112b5d8124060001bfa35f,ma_choice_v3_pilot3,5c112b5d8124060001bfa35f,2,Proximity to public transportation,followup,2,2,,,,,,2022-01-25 23:52:16,2574
5dd6861c070fdc6179d8003e,ma_choice_v3_pilot3,5dd6861c070fdc6179d8003e,11,Size of home,followup,2,2,,,,,,2022-01-25 23:52:27,2575
5dd6861c070fdc6179d8003e,ma_choice_v3_pilot3,5dd6861c070fdc6179d8003e,5,Amount of natural light,followup,2,2,,,,,,2022-01-25 23:52:27,2576
5dd6861c070fdc6179d8003e,ma_choice_v3_pilot3,5dd6861c070fdc6179d8003e,8,Size of yard,followup,2,2,,,,,,2022-01-25 23:52:27,2577
5dd6861c070fdc6179d8003e,ma_choice_v3_pilot3,5dd6861c070fdc6179d8003e,10,Amount of traffic,followup,2,2,,,,,,2022-01-25 23:52:27,2578
5dd6861c070fdc6179d8003e,ma_choice_v3_pilot3,5dd6861c070fdc6179d8003e,0,Proximity to parks,followup,2,2,,,,,,2022-01-25 23:52:27,2579
5dd6861c070fdc6179d8003e,ma_choice_v3_pilot3,5dd6861c070fdc6179d8003e,4,Reputation of closest school,followup,2,2,,,,,,2022-01-25 23:52:27,2580
5dd6861c070fdc6179d8003e,ma_choice_v3_pilot3,5dd6861c070fdc6179d8003e,1,Proximity to cafes/restaurants,followup,2,2,,,,,,2022-01-25 23:52:27,2581
5dd6861c070fdc6179d8003e,ma_choice_v3_pilot3,5dd6861c070fdc6179d8003e,9,Quality of heat/AC system,followup,2,2,,,,,,2022-01-25 23:52:27,2582
5dd6861c070fdc6179d8003e,ma_choice_v3_pilot3,5dd6861c070fdc6179d8003e,3,Noise pollution,followup,2,2,,,,,,2022-01-25 23:52:27,2583
5dd6861c070fdc6179d8003e,ma_choice_v3_pilot3,5dd6861c070fdc6179d8003e,6,Year building was built,followup,2,2,,,,,,2022-01-25 23:52:27,2584
5dd6861c070fdc6179d8003e,ma_choice_v3_pilot3,5dd6861c070fdc6179d8003e,2,Proximity to public transportation,followup,2,2,,,,,,2022-01-25 23:52:27,2585
5dd6861c070fdc6179d8003e,ma_choice_v3_pilot3,5dd6861c070fdc6179d8003e,7,Amount of crime in neighborhood,followup,2,2,,,,,,2022-01-25 23:52:27,2586
5c112b5d8124060001bfa35f,ma_choice_v3_pilot3,5c112b5d8124060001bfa35f,5,Amount of natural light,direction,2,2,-1,Very Little,A Moderate Amount,8534,,2022-01-25 23:52:58,2587
5dd6861c070fdc6179d8003e,ma_choice_v3_pilot3,5dd6861c070fdc6179d8003e,2,Proximity to public transportation,direction,2,2,-1,25 min away,5 min away,9162,,2022-01-25 23:53:04,2588
5c112b5d8124060001bfa35f,ma_choice_v3_pilot3,5c112b5d8124060001bfa35f,2,Proximity to public transportation,direction,2,2,-1,15 min away,20 min away,10269,,2022-01-25 23:53:08,2589
5dd6861c070fdc6179d8003e,ma_choice_v3_pilot3,5dd6861c070fdc6179d8003e,3,Noise pollution,direction,2,2,-1,Very High,Very Low,7043,,2022-01-25 23:53:11,2590
5c112b5d8124060001bfa35f,ma_choice_v3_pilot3,5c112b5d8124060001bfa35f,11,Size of home,direction,2,2,-1,600 square feet,1800 square feet,8272,,2022-01-25 23:53:16,2591
5dd6861c070fdc6179d8003e,ma_choice_v3_pilot3,5dd6861c070fdc6179d8003e,0,Proximity to parks,direction,2,2,-1,25 min away,5 min away,8334,,2022-01-25 23:53:20,2592
5c112b5d8124060001bfa35f,ma_choice_v3_pilot3,5c112b5d8124060001bfa35f,6,Year building was built,direction,2,2,-1,1950,2020,8793,,2022-01-25 23:53:25,2593
5dd6861c070fdc6179d8003e,ma_choice_v3_pilot3,5dd6861c070fdc6179d8003e,11,Size of home,direction,2,2,-1,600 square feet,1800 square feet,5294,,2022-01-25 23:53:25,2594
5c112b5d8124060001bfa35f,ma_choice_v3_pilot3,5c112b5d8124060001bfa35f,10,Amount of traffic,direction,2,2,-1,A Lot,Very Little,7343,,2022-01-25 23:53:32,2595
5dd6861c070fdc6179d8003e,ma_choice_v3_pilot3,5dd6861c070fdc6179d8003e,4,Reputation of closest school,direction,2,2,-1,Very Bad,Very Good,8427,,2022-01-25 23:53:34,2596
5c112b5d8124060001bfa35f,ma_choice_v3_pilot3,5c112b5d8124060001bfa35f,3,Noise pollution,direction,2,2,-1,Very High,Very Low,6053,,2022-01-25 23:53:38,2597
5c112b5d8124060001bfa35f,ma_choice_v3_pilot3,5c112b5d8124060001bfa35f,1,Proximity to cafes/restaurants,direction,2,2,-1,25 min away,15 min away,6303,,2022-01-25 23:53:45,2598
5dd6861c070fdc6179d8003e,ma_choice_v3_pilot3,5dd6861c070fdc6179d8003e,6,Year building was built,direction,2,2,-1,1985,2020,14254,,2022-01-25 23:53:48,2599
5c112b5d8124060001bfa35f,ma_choice_v3_pilot3,5c112b5d8124060001bfa35f,7,Amount of crime in neighborhood,direction,2,2,-1,Very High,Very Low,8307,,2022-01-25 23:53:53,2600
5dd6861c070fdc6179d8003e,ma_choice_v3_pilot3,5dd6861c070fdc6179d8003e,5,Amount of natural light,direction,2,2,-1,Very Little,A Lot,8009,,2022-01-25 23:53:56,2601
5c112b5d8124060001bfa35f,ma_choice_v3_pilot3,5c112b5d8124060001bfa35f,4,Reputation of closest school,direction,2,2,-1,Very Bad,Very Good,9207,,2022-01-25 23:54:02,2602
5dd6861c070fdc6179d8003e,ma_choice_v3_pilot3,5dd6861c070fdc6179d8003e,7,Amount of crime in neighborhood,direction,2,2,-1,Very High,Very Low,7917,,2022-01-25 23:54:04,2603
5c112b5d8124060001bfa35f,ma_choice_v3_pilot3,5c112b5d8124060001bfa35f,9,Quality of heat/AC system,direction,2,2,-1,Very Bad,Very Good,6871,,2022-01-25 23:54:09,2604
5dd6861c070fdc6179d8003e,ma_choice_v3_pilot3,5dd6861c070fdc6179d8003e,1,Proximity to cafes/restaurants,direction,2,2,-1,25 min away,5 min away,6760,,2022-01-25 23:54:11,2605
5dd6861c070fdc6179d8003e,ma_choice_v3_pilot3,5dd6861c070fdc6179d8003e,10,Amount of traffic,direction,2,2,-1,A Lot,Very Little,5617,,2022-01-25 23:54:16,2606
5c112b5d8124060001bfa35f,ma_choice_v3_pilot3,5c112b5d8124060001bfa35f,8,Size of yard,direction,2,2,-1,None,Large,8083,,2022-01-25 23:54:17,2607
5c112b5d8124060001bfa35f,ma_choice_v3_pilot3,5c112b5d8124060001bfa35f,0,Proximity to parks,direction,2,2,-1,25 min away,10 min away,6894,,2022-01-25 23:54:24,2608
5dd6861c070fdc6179d8003e,ma_choice_v3_pilot3,5dd6861c070fdc6179d8003e,8,Size of yard,direction,2,2,-1,None,Medium,15079,,2022-01-25 23:54:31,2609
5dd6861c070fdc6179d8003e,ma_choice_v3_pilot3,5dd6861c070fdc6179d8003e,9,Quality of heat/AC system,direction,2,2,-1,Very Bad,Very Good,6122,,2022-01-25 23:54:37,2610
5c71b63c4aa8ec0001f2bfc4,ma_choice_v3_pilot3,5c71b63c4aa8ec0001f2bfc4,0,Amount of crime in neighborhood,original,,1,1,,,4182,,2022-01-26 00:02:35,2611
5c71b63c4aa8ec0001f2bfc4,ma_choice_v3_pilot3,5c71b63c4aa8ec0001f2bfc4,8,Size of yard,followup,,1,25,,,3012,,2022-01-26 00:02:52,2612
5c71b63c4aa8ec0001f2bfc4,ma_choice_v3_pilot3,5c71b63c4aa8ec0001f2bfc4,9,Quality of heat/AC system,followup,,1,36,,,2673,,2022-01-26 00:02:54,2613
5c71b63c4aa8ec0001f2bfc4,ma_choice_v3_pilot3,5c71b63c4aa8ec0001f2bfc4,7,Amount of crime in neighborhood,followup,,1,100,,,3558,,2022-01-26 00:02:58,2614
5c71b63c4aa8ec0001f2bfc4,ma_choice_v3_pilot3,5c71b63c4aa8ec0001f2bfc4,0,Proximity to parks,followup,,1,25,,,2481,,2022-01-26 00:03:00,2615
5c71b63c4aa8ec0001f2bfc4,ma_choice_v3_pilot3,5c71b63c4aa8ec0001f2bfc4,10,Amount of traffic,followup,,1,25,,,2487,,2022-01-26 00:03:03,2616
5c71b63c4aa8ec0001f2bfc4,ma_choice_v3_pilot3,5c71b63c4aa8ec0001f2bfc4,11,Size of home,followup,,1,11,,,3097,,2022-01-26 00:03:06,2617
5c71b63c4aa8ec0001f2bfc4,ma_choice_v3_pilot3,5c71b63c4aa8ec0001f2bfc4,1,Proximity to cafes/restaurants,followup,,1,38,,,3003,,2022-01-26 00:03:09,2618
5c71b63c4aa8ec0001f2bfc4,ma_choice_v3_pilot3,5c71b63c4aa8ec0001f2bfc4,4,Reputation of closest school,followup,,1,51,,,4367,,2022-01-26 00:03:13,2619
5c71b63c4aa8ec0001f2bfc4,ma_choice_v3_pilot3,5c71b63c4aa8ec0001f2bfc4,2,Proximity to public transportation,followup,,1,63,,,2240,,2022-01-26 00:03:16,2620
5c71b63c4aa8ec0001f2bfc4,ma_choice_v3_pilot3,5c71b63c4aa8ec0001f2bfc4,5,Amount of natural light,followup,,1,38,,,2440,,2022-01-26 00:03:18,2621
5c71b63c4aa8ec0001f2bfc4,ma_choice_v3_pilot3,5c71b63c4aa8ec0001f2bfc4,3,Noise pollution,followup,,1,37,,,2604,,2022-01-26 00:03:21,2622
5c71b63c4aa8ec0001f2bfc4,ma_choice_v3_pilot3,5c71b63c4aa8ec0001f2bfc4,6,Year building was built,followup,,1,13,,,2281,,2022-01-26 00:03:23,2623
5c71b63c4aa8ec0001f2bfc4,ma_choice_v3_pilot3,5c71b63c4aa8ec0001f2bfc4,5,Amount of natural light,direction,,1,-1,Very Little,A Lot,8092,,2022-01-26 00:03:49,2624
5c71b63c4aa8ec0001f2bfc4,ma_choice_v3_pilot3,5c71b63c4aa8ec0001f2bfc4,2,Proximity to public transportation,direction,,1,-1,25 min away,5 min away,4931,,2022-01-26 00:03:53,2625
5c71b63c4aa8ec0001f2bfc4,ma_choice_v3_pilot3,5c71b63c4aa8ec0001f2bfc4,11,Size of home,direction,,1,-1,600 square feet,1800 square feet,4808,,2022-01-26 00:03:58,2626
5c71b63c4aa8ec0001f2bfc4,ma_choice_v3_pilot3,5c71b63c4aa8ec0001f2bfc4,0,Proximity to parks,direction,,1,-1,25 min away,5 min away,4510,,2022-01-26 00:04:03,2627
5c71b63c4aa8ec0001f2bfc4,ma_choice_v3_pilot3,5c71b63c4aa8ec0001f2bfc4,4,Reputation of closest school,direction,,1,-1,Very Bad,Very Good,5932,,2022-01-26 00:04:09,2628
5c71b63c4aa8ec0001f2bfc4,ma_choice_v3_pilot3,5c71b63c4aa8ec0001f2bfc4,10,Amount of traffic,direction,,1,-1,A Lot,Very Little,4892,,2022-01-26 00:04:14,2629
5c71b63c4aa8ec0001f2bfc4,ma_choice_v3_pilot3,5c71b63c4aa8ec0001f2bfc4,9,Quality of heat/AC system,direction,,1,-1,Very Bad,Very Good,6308,,2022-01-26 00:04:20,2630
5c71b63c4aa8ec0001f2bfc4,ma_choice_v3_pilot3,5c71b63c4aa8ec0001f2bfc4,7,Amount of crime in neighborhood,direction,,1,-1,Very High,Very Low,5999,,2022-01-26 00:04:26,2631
5c71b63c4aa8ec0001f2bfc4,ma_choice_v3_pilot3,5c71b63c4aa8ec0001f2bfc4,8,Size of yard,direction,,1,-1,None,Medium,12919,,2022-01-26 00:04:39,2632
5c71b63c4aa8ec0001f2bfc4,ma_choice_v3_pilot3,5c71b63c4aa8ec0001f2bfc4,1,Proximity to cafes/restaurants,direction,,1,-1,25 min away,5 min away,3922,,2022-01-26 00:04:43,2633
5c71b63c4aa8ec0001f2bfc4,ma_choice_v3_pilot3,5c71b63c4aa8ec0001f2bfc4,6,Year building was built,direction,,1,-1,1985,2020,8629,,2022-01-26 00:04:51,2634
5c71b63c4aa8ec0001f2bfc4,ma_choice_v3_pilot3,5c71b63c4aa8ec0001f2bfc4,3,Noise pollution,direction,,1,-1,Very High,Very Low,5908,,2022-01-26 00:04:57,2635
5f202fb60bd98f087818ea51,ma_choice_v3_pilot3,5f202fb60bd98f087818ea51,3,Noise pollution,original,2,2,81,,,10010,,2022-01-26 00:07:22,2636
5f202fb60bd98f087818ea51,ma_choice_v3_pilot3,5f202fb60bd98f087818ea51,7,Amount of crime in neighborhood,original,2,2,94,,,9380,,2022-01-26 00:07:32,2637
5f202fb60bd98f087818ea51,ma_choice_v3_pilot3,5f202fb60bd98f087818ea51,1,Proximity to cafes/restaurants,original,2,2,0,,,6057,,2022-01-26 00:07:38,2638
5f202fb60bd98f087818ea51,ma_choice_v3_pilot3,5f202fb60bd98f087818ea51,8,Size of yard,original,2,2,12,,,7244,,2022-01-26 00:07:45,2639
5f202fb60bd98f087818ea51,ma_choice_v3_pilot3,5f202fb60bd98f087818ea51,9,Quality of heat/AC system,original,2,2,100,,,3349,,2022-01-26 00:07:49,2640
5f202fb60bd98f087818ea51,ma_choice_v3_pilot3,5f202fb60bd98f087818ea51,2,Proximity to public transportation,original,2,2,0,,,4046,,2022-01-26 00:07:53,2641
5f202fb60bd98f087818ea51,ma_choice_v3_pilot3,5f202fb60bd98f087818ea51,5,Amount of natural light,original,2,2,12,,,9995,,2022-01-26 00:08:03,2642
5f202fb60bd98f087818ea51,ma_choice_v3_pilot3,5f202fb60bd98f087818ea51,0,Proximity to parks,original,2,2,0,,,4145,,2022-01-26 00:08:07,2643
5f202fb60bd98f087818ea51,ma_choice_v3_pilot3,5f202fb60bd98f087818ea51,6,Year building was built,original,2,2,0,,,3178,,2022-01-26 00:08:10,2644
5f202fb60bd98f087818ea51,ma_choice_v3_pilot3,5f202fb60bd98f087818ea51,10,Amount of traffic,original,2,2,74,,,6987,,2022-01-26 00:08:17,2645
5f202fb60bd98f087818ea51,ma_choice_v3_pilot3,5f202fb60bd98f087818ea51,4,Reputation of closest school,original,2,2,0,,,5415,,2022-01-26 00:08:22,2646
5f202fb60bd98f087818ea51,ma_choice_v3_pilot3,5f202fb60bd98f087818ea51,11,Size of home,original,2,2,12,,,12090,,2022-01-26 00:08:34,2647
5f202fb60bd98f087818ea51,ma_choice_v3_pilot3,5f202fb60bd98f087818ea51,4,Reputation of closest school,followup,2,2,,,,,,2022-01-26 00:08:52,2648
5f202fb60bd98f087818ea51,ma_choice_v3_pilot3,5f202fb60bd98f087818ea51,9,Quality of heat/AC system,followup,2,2,,,,,,2022-01-26 00:08:52,2649
5f202fb60bd98f087818ea51,ma_choice_v3_pilot3,5f202fb60bd98f087818ea51,7,Amount of crime in neighborhood,followup,2,2,,,,,,2022-01-26 00:08:52,2650
5f202fb60bd98f087818ea51,ma_choice_v3_pilot3,5f202fb60bd98f087818ea51,2,Proximity to public transportation,followup,2,2,,,,,,2022-01-26 00:08:52,2651
5f202fb60bd98f087818ea51,ma_choice_v3_pilot3,5f202fb60bd98f087818ea51,8,Size of yard,followup,2,2,,,,,,2022-01-26 00:08:52,2652
5f202fb60bd98f087818ea51,ma_choice_v3_pilot3,5f202fb60bd98f087818ea51,11,Size of home,followup,2,2,,,,,,2022-01-26 00:08:52,2653
5f202fb60bd98f087818ea51,ma_choice_v3_pilot3,5f202fb60bd98f087818ea51,6,Year building was built,followup,2,2,,,,,,2022-01-26 00:08:52,2654
5f202fb60bd98f087818ea51,ma_choice_v3_pilot3,5f202fb60bd98f087818ea51,1,Proximity to cafes/restaurants,followup,2,2,,,,,,2022-01-26 00:08:52,2655
5f202fb60bd98f087818ea51,ma_choice_v3_pilot3,5f202fb60bd98f087818ea51,0,Proximity to parks,followup,2,2,,,,,,2022-01-26 00:08:52,2656
5f202fb60bd98f087818ea51,ma_choice_v3_pilot3,5f202fb60bd98f087818ea51,3,Noise pollution,followup,2,2,,,,,,2022-01-26 00:08:52,2657
5f202fb60bd98f087818ea51,ma_choice_v3_pilot3,5f202fb60bd98f087818ea51,10,Amount of traffic,followup,2,2,,,,,,2022-01-26 00:08:52,2658
5f202fb60bd98f087818ea51,ma_choice_v3_pilot3,5f202fb60bd98f087818ea51,5,Amount of natural light,followup,2,2,,,,,,2022-01-26 00:08:52,2659
5e412b282596b0354e2a42e2,ma_choice_v3_pilot3,5e412b282596b0354e2a42e2,0,Amount of crime in neighborhood,original,,1,1,,,6217,,2022-01-26 00:08:59,2660
5dd73f496ca7e76e32b1aa16,ma_choice_v3_pilot3,5dd73f496ca7e76e32b1aa16,9,Quality of heat/AC system,original,2,2,12,,,11891,,2022-01-26 00:09:00,2661
5dd73f496ca7e76e32b1aa16,ma_choice_v3_pilot3,5dd73f496ca7e76e32b1aa16,5,Amount of natural light,original,2,2,24,,,11104,,2022-01-26 00:09:11,2662
5dd73f496ca7e76e32b1aa16,ma_choice_v3_pilot3,5dd73f496ca7e76e32b1aa16,4,Reputation of closest school,original,2,2,75,,,8586,,2022-01-26 00:09:19,2663
5dd73f496ca7e76e32b1aa16,ma_choice_v3_pilot3,5dd73f496ca7e76e32b1aa16,11,Size of home,original,2,2,75,,,11033,,2022-01-26 00:09:30,2664
5dd73f496ca7e76e32b1aa16,ma_choice_v3_pilot3,5dd73f496ca7e76e32b1aa16,6,Year building was built,original,2,2,75,,,8410,,2022-01-26 00:09:39,2665
5f202fb60bd98f087818ea51,ma_choice_v3_pilot3,5f202fb60bd98f087818ea51,6,Year building was built,direction,2,2,-1,2020,1985,20254,,2022-01-26 00:09:44,2666
5dd73f496ca7e76e32b1aa16,ma_choice_v3_pilot3,5dd73f496ca7e76e32b1aa16,10,Amount of traffic,original,2,2,49,,,8615,,2022-01-26 00:09:48,2667
5dd73f496ca7e76e32b1aa16,ma_choice_v3_pilot3,5dd73f496ca7e76e32b1aa16,8,Size of yard,original,2,2,50,,,10928,,2022-01-26 00:10:01,2668
5dd73f496ca7e76e32b1aa16,ma_choice_v3_pilot3,5dd73f496ca7e76e32b1aa16,2,Proximity to public transportation,original,2,2,12,,,7503,,2022-01-26 00:10:06,2669
5e412b282596b0354e2a42e2,ma_choice_v3_pilot3,5e412b282596b0354e2a42e2,0,Proximity to parks,followup,,1,0,,,4918,,2022-01-26 00:10:09,2670
5e412b282596b0354e2a42e2,ma_choice_v3_pilot3,5e412b282596b0354e2a42e2,1,Proximity to cafes/restaurants,followup,,1,0,,,2523,,2022-01-26 00:10:11,2671
5f202fb60bd98f087818ea51,ma_choice_v3_pilot3,5f202fb60bd98f087818ea51,3,Noise pollution,direction,2,2,-1,Very High,Very Low,27358,,2022-01-26 00:10:12,2672
5e412b282596b0354e2a42e2,ma_choice_v3_pilot3,5e412b282596b0354e2a42e2,7,Amount of crime in neighborhood,followup,,1,100,,,4007,,2022-01-26 00:10:15,2673
5dd73f496ca7e76e32b1aa16,ma_choice_v3_pilot3,5dd73f496ca7e76e32b1aa16,1,Proximity to cafes/restaurants,original,2,2,0,,,13591,,2022-01-26 00:10:19,2674
5e412b282596b0354e2a42e2,ma_choice_v3_pilot3,5e412b282596b0354e2a42e2,9,Quality of heat/AC system,followup,,1,74,,,4824,,2022-01-26 00:10:20,2675
5f202fb60bd98f087818ea51,ma_choice_v3_pilot3,5f202fb60bd98f087818ea51,5,Amount of natural light,direction,2,2,-1,Very Little,A Moderate Amount,12112,,2022-01-26 00:10:24,2676
5e412b282596b0354e2a42e2,ma_choice_v3_pilot3,5e412b282596b0354e2a42e2,5,Amount of natural light,followup,,1,24,,,5088,,2022-01-26 00:10:25,2677
5dd73f496ca7e76e32b1aa16,ma_choice_v3_pilot3,5dd73f496ca7e76e32b1aa16,0,Proximity to parks,original,2,2,0,,,7698,,2022-01-26 00:10:27,2678
5e412b282596b0354e2a42e2,ma_choice_v3_pilot3,5e412b282596b0354e2a42e2,10,Amount of traffic,followup,,1,0,,,3950,,2022-01-26 00:10:29,2679
5e412b282596b0354e2a42e2,ma_choice_v3_pilot3,5e412b282596b0354e2a42e2,8,Size of yard,followup,,1,0,,,3866,,2022-01-26 00:10:33,2680
5dd73f496ca7e76e32b1aa16,ma_choice_v3_pilot3,5dd73f496ca7e76e32b1aa16,7,Amount of crime in neighborhood,original,2,2,87,,,8698,,2022-01-26 00:10:36,2681
5e412b282596b0354e2a42e2,ma_choice_v3_pilot3,5e412b282596b0354e2a42e2,4,Reputation of closest school,followup,,1,0,,,3245,,2022-01-26 00:10:36,2682
5f202fb60bd98f087818ea51,ma_choice_v3_pilot3,5f202fb60bd98f087818ea51,11,Size of home,direction,2,2,-1,1800 square feet,1200 square feet,13776,,2022-01-26 00:10:38,2683
5e412b282596b0354e2a42e2,ma_choice_v3_pilot3,5e412b282596b0354e2a42e2,6,Year building was built,followup,,1,13,,,3151,,2022-01-26 00:10:39,2684
5e412b282596b0354e2a42e2,ma_choice_v3_pilot3,5e412b282596b0354e2a42e2,3,Noise pollution,followup,,1,12,,,3045,,2022-01-26 00:10:42,2685
5dd73f496ca7e76e32b1aa16,ma_choice_v3_pilot3,5dd73f496ca7e76e32b1aa16,3,Noise pollution,original,2,2,62,,,9113,,2022-01-26 00:10:45,2686
5e412b282596b0354e2a42e2,ma_choice_v3_pilot3,5e412b282596b0354e2a42e2,2,Proximity to public transportation,followup,,1,0,,,3655,,2022-01-26 00:10:46,2687
5e412b282596b0354e2a42e2,ma_choice_v3_pilot3,5e412b282596b0354e2a42e2,11,Size of home,followup,,1,13,,,2666,,2022-01-26 00:10:49,2688
5f202fb60bd98f087818ea51,ma_choice_v3_pilot3,5f202fb60bd98f087818ea51,2,Proximity to public transportation,direction,2,2,-1,5 min away,20 min away,22182,,2022-01-26 00:11:00,2689
5f202fb60bd98f087818ea51,ma_choice_v3_pilot3,5f202fb60bd98f087818ea51,9,Quality of heat/AC system,direction,2,2,-1,Very Bad,Very Good,7437,,2022-01-26 00:11:07,2690
5f202fb60bd98f087818ea51,ma_choice_v3_pilot3,5f202fb60bd98f087818ea51,7,Amount of crime in neighborhood,direction,2,2,-1,Very High,Very Low,9900,,2022-01-26 00:11:17,2691
5dd73f496ca7e76e32b1aa16,ma_choice_v3_pilot3,5dd73f496ca7e76e32b1aa16,8,Size of yard,followup,2,2,,,,,,2022-01-26 00:11:30,2692
5dd73f496ca7e76e32b1aa16,ma_choice_v3_pilot3,5dd73f496ca7e76e32b1aa16,0,Proximity to parks,followup,2,2,,,,,,2022-01-26 00:11:30,2693
5dd73f496ca7e76e32b1aa16,ma_choice_v3_pilot3,5dd73f496ca7e76e32b1aa16,11,Size of home,followup,2,2,,,,,,2022-01-26 00:11:30,2694
5dd73f496ca7e76e32b1aa16,ma_choice_v3_pilot3,5dd73f496ca7e76e32b1aa16,6,Year building was built,followup,2,2,,,,,,2022-01-26 00:11:30,2695
5dd73f496ca7e76e32b1aa16,ma_choice_v3_pilot3,5dd73f496ca7e76e32b1aa16,4,Reputation of closest school,followup,2,2,,,,,,2022-01-26 00:11:30,2696
5dd73f496ca7e76e32b1aa16,ma_choice_v3_pilot3,5dd73f496ca7e76e32b1aa16,3,Noise pollution,followup,2,2,,,,,,2022-01-26 00:11:30,2697
5dd73f496ca7e76e32b1aa16,ma_choice_v3_pilot3,5dd73f496ca7e76e32b1aa16,10,Amount of traffic,followup,2,2,,,,,,2022-01-26 00:11:30,2698
5dd73f496ca7e76e32b1aa16,ma_choice_v3_pilot3,5dd73f496ca7e76e32b1aa16,1,Proximity to cafes/restaurants,followup,2,2,,,,,,2022-01-26 00:11:30,2699
5dd73f496ca7e76e32b1aa16,ma_choice_v3_pilot3,5dd73f496ca7e76e32b1aa16,7,Amount of crime in neighborhood,followup,2,2,,,,,,2022-01-26 00:11:30,2700
5dd73f496ca7e76e32b1aa16,ma_choice_v3_pilot3,5dd73f496ca7e76e32b1aa16,2,Proximity to public transportation,followup,2,2,,,,,,2022-01-26 00:11:30,2701
5dd73f496ca7e76e32b1aa16,ma_choice_v3_pilot3,5dd73f496ca7e76e32b1aa16,9,Quality of heat/AC system,followup,2,2,,,,,,2022-01-26 00:11:30,2702
5dd73f496ca7e76e32b1aa16,ma_choice_v3_pilot3,5dd73f496ca7e76e32b1aa16,5,Amount of natural light,followup,2,2,,,,,,2022-01-26 00:11:30,2703
5f202fb60bd98f087818ea51,ma_choice_v3_pilot3,5f202fb60bd98f087818ea51,10,Amount of traffic,direction,2,2,-1,A Lot,A Little,17675,,2022-01-26 00:11:35,2704
5e412b282596b0354e2a42e2,ma_choice_v3_pilot3,5e412b282596b0354e2a42e2,1,Proximity to cafes/restaurants,direction,,1,-1,25 min away,5 min away,15320,,2022-01-26 00:11:43,2705
5e412b282596b0354e2a42e2,ma_choice_v3_pilot3,5e412b282596b0354e2a42e2,0,Proximity to parks,direction,,1,-1,25 min away,5 min away,8710,,2022-01-26 00:11:52,2706
5f202fb60bd98f087818ea51,ma_choice_v3_pilot3,5f202fb60bd98f087818ea51,1,Proximity to cafes/restaurants,direction,2,2,-1,25 min away,10 min away,18286,,2022-01-26 00:11:53,2707
5e412b282596b0354e2a42e2,ma_choice_v3_pilot3,5e412b282596b0354e2a42e2,4,Reputation of closest school,direction,,1,-1,Very Bad,Very Good,5811,,2022-01-26 00:11:57,2708
5f202fb60bd98f087818ea51,ma_choice_v3_pilot3,5f202fb60bd98f087818ea51,8,Size of yard,direction,2,2,-1,None,Medium,8619,,2022-01-26 00:12:02,2709
5e412b282596b0354e2a42e2,ma_choice_v3_pilot3,5e412b282596b0354e2a42e2,2,Proximity to public transportation,direction,,1,-1,25 min away,10 min away,11143,,2022-01-26 00:12:09,2710
5f202fb60bd98f087818ea51,ma_choice_v3_pilot3,5f202fb60bd98f087818ea51,0,Proximity to parks,direction,2,2,-1,5 min away,15 min away,12100,,2022-01-26 00:12:14,2711
5e412b282596b0354e2a42e2,ma_choice_v3_pilot3,5e412b282596b0354e2a42e2,10,Amount of traffic,direction,,1,-1,A Lot,Very Little,7135,,2022-01-26 00:12:16,2712
5e412b282596b0354e2a42e2,ma_choice_v3_pilot3,5e412b282596b0354e2a42e2,9,Quality of heat/AC system,direction,,1,-1,Very Bad,Very Good,4898,,2022-01-26 00:12:21,2713
5f202fb60bd98f087818ea51,ma_choice_v3_pilot3,5f202fb60bd98f087818ea51,4,Reputation of closest school,direction,2,2,-1,Very Bad,Moderate,11004,,2022-01-26 00:12:25,2714
5e412b282596b0354e2a42e2,ma_choice_v3_pilot3,5e412b282596b0354e2a42e2,6,Year building was built,direction,,1,-1,1950,1985,13568,,2022-01-26 00:12:34,2715
5e412b282596b0354e2a42e2,ma_choice_v3_pilot3,5e412b282596b0354e2a42e2,8,Size of yard,direction,,1,-1,None,Large,12171,,2022-01-26 00:12:46,2716
5dd73f496ca7e76e32b1aa16,ma_choice_v3_pilot3,5dd73f496ca7e76e32b1aa16,1,Proximity to cafes/restaurants,direction,2,2,-1,25 min away,5 min away,47018,,2022-01-26 00:12:50,2717
5e412b282596b0354e2a42e2,ma_choice_v3_pilot3,5e412b282596b0354e2a42e2,5,Amount of natural light,direction,,1,-1,Very Little,A Lot,4872,,2022-01-26 00:12:51,2718
5e412b282596b0354e2a42e2,ma_choice_v3_pilot3,5e412b282596b0354e2a42e2,3,Noise pollution,direction,,1,-1,Very High,Very Low,5684,,2022-01-26 00:12:57,2719
5e412b282596b0354e2a42e2,ma_choice_v3_pilot3,5e412b282596b0354e2a42e2,7,Amount of crime in neighborhood,direction,,1,-1,Very High,Very Low,3987,,2022-01-26 00:13:01,2720
5e412b282596b0354e2a42e2,ma_choice_v3_pilot3,5e412b282596b0354e2a42e2,11,Size of home,direction,,1,-1,600 square feet,1800 square feet,5951,,2022-01-26 00:13:07,2721
5dd73f496ca7e76e32b1aa16,ma_choice_v3_pilot3,5dd73f496ca7e76e32b1aa16,9,Quality of heat/AC system,direction,2,2,-1,Very Bad,Very Good,31250,,2022-01-26 00:13:21,2722
5dd73f496ca7e76e32b1aa16,ma_choice_v3_pilot3,5dd73f496ca7e76e32b1aa16,7,Amount of crime in neighborhood,direction,2,2,-1,Very High,Very Low,15508,,2022-01-26 00:13:37,2723
5dd73f496ca7e76e32b1aa16,ma_choice_v3_pilot3,5dd73f496ca7e76e32b1aa16,2,Proximity to public transportation,direction,2,2,-1,25 min away,5 min away,17253,,2022-01-26 00:13:54,2724
5dd73f496ca7e76e32b1aa16,ma_choice_v3_pilot3,5dd73f496ca7e76e32b1aa16,0,Proximity to parks,direction,2,2,-1,25 min away,5 min away,18885,,2022-01-26 00:14:13,2725
5dd73f496ca7e76e32b1aa16,ma_choice_v3_pilot3,5dd73f496ca7e76e32b1aa16,5,Amount of natural light,direction,2,2,-1,A Lot,Very Little,20669,,2022-01-26 00:14:33,2726
5e975c32ca82b62079dc8f7c,ma_choice_v3_pilot3,5e975c32ca82b62079dc8f7c,9,Quality of heat/AC system,original,2,2,12,,,4840,,2022-01-26 00:14:40,2727
5dd73f496ca7e76e32b1aa16,ma_choice_v3_pilot3,5dd73f496ca7e76e32b1aa16,11,Size of home,direction,2,2,-1,600 square feet,1800 square feet,9684,,2022-01-26 00:14:43,2728
5e975c32ca82b62079dc8f7c,ma_choice_v3_pilot3,5e975c32ca82b62079dc8f7c,10,Amount of traffic,original,2,2,61,,,6026,,2022-01-26 00:14:46,2729
5e975c32ca82b62079dc8f7c,ma_choice_v3_pilot3,5e975c32ca82b62079dc8f7c,4,Reputation of closest school,original,2,2,87,,,4485,,2022-01-26 00:14:51,2730
5e975c32ca82b62079dc8f7c,ma_choice_v3_pilot3,5e975c32ca82b62079dc8f7c,11,Size of home,original,2,2,51,,,3338,,2022-01-26 00:14:54,2731
5e975c32ca82b62079dc8f7c,ma_choice_v3_pilot3,5e975c32ca82b62079dc8f7c,7,Amount of crime in neighborhood,original,2,2,62,,,3841,,2022-01-26 00:14:58,2732
5dd73f496ca7e76e32b1aa16,ma_choice_v3_pilot3,5dd73f496ca7e76e32b1aa16,4,Reputation of closest school,direction,2,2,-1,Very Bad,Very Good,18607,,2022-01-26 00:15:02,2733
5e975c32ca82b62079dc8f7c,ma_choice_v3_pilot3,5e975c32ca82b62079dc8f7c,3,Noise pollution,original,2,2,63,,,3912,,2022-01-26 00:15:02,2734
5e975c32ca82b62079dc8f7c,ma_choice_v3_pilot3,5e975c32ca82b62079dc8f7c,6,Year building was built,original,2,2,26,,,3338,,2022-01-26 00:15:05,2735
5e975c32ca82b62079dc8f7c,ma_choice_v3_pilot3,5e975c32ca82b62079dc8f7c,1,Proximity to cafes/restaurants,original,2,2,24,,,4648,,2022-01-26 00:15:10,2736
5e975c32ca82b62079dc8f7c,ma_choice_v3_pilot3,5e975c32ca82b62079dc8f7c,0,Proximity to parks,original,2,2,50,,,4601,,2022-01-26 00:15:14,2737
5e975c32ca82b62079dc8f7c,ma_choice_v3_pilot3,5e975c32ca82b62079dc8f7c,5,Amount of natural light,original,2,2,49,,,3338,,2022-01-26 00:15:18,2738
5e975c32ca82b62079dc8f7c,ma_choice_v3_pilot3,5e975c32ca82b62079dc8f7c,8,Size of yard,original,2,2,51,,,2583,,2022-01-26 00:15:20,2739
5dd73f496ca7e76e32b1aa16,ma_choice_v3_pilot3,5dd73f496ca7e76e32b1aa16,10,Amount of traffic,direction,2,2,-1,A Lot,Very Little,19127,,2022-01-26 00:15:21,2740
5e975c32ca82b62079dc8f7c,ma_choice_v3_pilot3,5e975c32ca82b62079dc8f7c,2,Proximity to public transportation,original,2,2,13,,,4053,,2022-01-26 00:15:24,2741
5dd73f496ca7e76e32b1aa16,ma_choice_v3_pilot3,5dd73f496ca7e76e32b1aa16,8,Size of yard,direction,2,2,-1,None,Large,18100,,2022-01-26 00:15:39,2742
5e975c32ca82b62079dc8f7c,ma_choice_v3_pilot3,5e975c32ca82b62079dc8f7c,8,Size of yard,followup,2,2,,,,,,2022-01-26 00:15:39,2743
5e975c32ca82b62079dc8f7c,ma_choice_v3_pilot3,5e975c32ca82b62079dc8f7c,2,Proximity to public transportation,followup,2,2,,,,,,2022-01-26 00:15:39,2744
5e975c32ca82b62079dc8f7c,ma_choice_v3_pilot3,5e975c32ca82b62079dc8f7c,6,Year building was built,followup,2,2,,,,,,2022-01-26 00:15:39,2745
5e975c32ca82b62079dc8f7c,ma_choice_v3_pilot3,5e975c32ca82b62079dc8f7c,5,Amount of natural light,followup,2,2,,,,,,2022-01-26 00:15:39,2746
5e975c32ca82b62079dc8f7c,ma_choice_v3_pilot3,5e975c32ca82b62079dc8f7c,3,Noise pollution,followup,2,2,,,,,,2022-01-26 00:15:39,2747
5e975c32ca82b62079dc8f7c,ma_choice_v3_pilot3,5e975c32ca82b62079dc8f7c,1,Proximity to cafes/restaurants,followup,2,2,,,,,,2022-01-26 00:15:39,2748
5e975c32ca82b62079dc8f7c,ma_choice_v3_pilot3,5e975c32ca82b62079dc8f7c,11,Size of home,followup,2,2,,,,,,2022-01-26 00:15:39,2749
5e975c32ca82b62079dc8f7c,ma_choice_v3_pilot3,5e975c32ca82b62079dc8f7c,9,Quality of heat/AC system,followup,2,2,,,,,,2022-01-26 00:15:39,2750
5e975c32ca82b62079dc8f7c,ma_choice_v3_pilot3,5e975c32ca82b62079dc8f7c,10,Amount of traffic,followup,2,2,,,,,,2022-01-26 00:15:39,2751
5e975c32ca82b62079dc8f7c,ma_choice_v3_pilot3,5e975c32ca82b62079dc8f7c,7,Amount of crime in neighborhood,followup,2,2,,,,,,2022-01-26 00:15:39,2752
5e975c32ca82b62079dc8f7c,ma_choice_v3_pilot3,5e975c32ca82b62079dc8f7c,0,Proximity to parks,followup,2,2,,,,,,2022-01-26 00:15:39,2753
5e975c32ca82b62079dc8f7c,ma_choice_v3_pilot3,5e975c32ca82b62079dc8f7c,4,Reputation of closest school,followup,2,2,,,,,,2022-01-26 00:15:39,2754
5dd73f496ca7e76e32b1aa16,ma_choice_v3_pilot3,5dd73f496ca7e76e32b1aa16,6,Year building was built,direction,2,2,-1,1950,2020,12715,,2022-01-26 00:15:52,2755
5dd73f496ca7e76e32b1aa16,ma_choice_v3_pilot3,5dd73f496ca7e76e32b1aa16,3,Noise pollution,direction,2,2,-1,Very High,Very Low,18744,,2022-01-26 00:16:10,2756
5e975c32ca82b62079dc8f7c,ma_choice_v3_pilot3,5e975c32ca82b62079dc8f7c,11,Size of home,direction,2,2,-1,600 square feet,1800 square feet,9176,,2022-01-26 00:16:12,2757
5e975c32ca82b62079dc8f7c,ma_choice_v3_pilot3,5e975c32ca82b62079dc8f7c,5,Amount of natural light,direction,2,2,-1,Very Little,A Lot,8894,,2022-01-26 00:16:21,2758
5e975c32ca82b62079dc8f7c,ma_choice_v3_pilot3,5e975c32ca82b62079dc8f7c,8,Size of yard,direction,2,2,-1,None,Very Large,8813,,2022-01-26 00:16:30,2759
5e975c32ca82b62079dc8f7c,ma_choice_v3_pilot3,5e975c32ca82b62079dc8f7c,2,Proximity to public transportation,direction,2,2,-1,25 min away,5 min away,17076,,2022-01-26 00:16:47,2760
5e975c32ca82b62079dc8f7c,ma_choice_v3_pilot3,5e975c32ca82b62079dc8f7c,7,Amount of crime in neighborhood,direction,2,2,-1,Very High,Very Low,6011,,2022-01-26 00:16:53,2761
5e975c32ca82b62079dc8f7c,ma_choice_v3_pilot3,5e975c32ca82b62079dc8f7c,4,Reputation of closest school,direction,2,2,-1,Very Bad,Very Good,5659,,2022-01-26 00:16:59,2762
5e975c32ca82b62079dc8f7c,ma_choice_v3_pilot3,5e975c32ca82b62079dc8f7c,9,Quality of heat/AC system,direction,2,2,-1,Very Bad,Very Good,6364,,2022-01-26 00:17:05,2763
5e975c32ca82b62079dc8f7c,ma_choice_v3_pilot3,5e975c32ca82b62079dc8f7c,0,Proximity to parks,direction,2,2,-1,25 min away,5 min away,11031,,2022-01-26 00:17:16,2764
5e975c32ca82b62079dc8f7c,ma_choice_v3_pilot3,5e975c32ca82b62079dc8f7c,1,Proximity to cafes/restaurants,direction,2,2,-1,25 min away,5 min away,6921,,2022-01-26 00:17:23,2765
5e975c32ca82b62079dc8f7c,ma_choice_v3_pilot3,5e975c32ca82b62079dc8f7c,10,Amount of traffic,direction,2,2,-1,A Lot,Very Little,8028,,2022-01-26 00:17:31,2766
5e975c32ca82b62079dc8f7c,ma_choice_v3_pilot3,5e975c32ca82b62079dc8f7c,6,Year building was built,direction,2,2,-1,1950,2020,6125,,2022-01-26 00:17:37,2767
5e975c32ca82b62079dc8f7c,ma_choice_v3_pilot3,5e975c32ca82b62079dc8f7c,3,Noise pollution,direction,2,2,-1,Very High,Very Low,17141,,2022-01-26 00:17:55,2768
5e648efca8c76520c918bb31,ma_choice_v3_pilot3,5e648efca8c76520c918bb31,7,Amount of crime in neighborhood,original,2,2,87,,,4193,,2022-01-26 00:26:58,2769
5e648efca8c76520c918bb31,ma_choice_v3_pilot3,5e648efca8c76520c918bb31,8,Size of yard,original,2,2,50,,,3327,,2022-01-26 00:27:01,2770
5e648efca8c76520c918bb31,ma_choice_v3_pilot3,5e648efca8c76520c918bb31,10,Amount of traffic,original,2,2,46,,,1667,,2022-01-26 00:27:03,2771
5e648efca8c76520c918bb31,ma_choice_v3_pilot3,5e648efca8c76520c918bb31,3,Noise pollution,original,2,2,62,,,3066,,2022-01-26 00:27:06,2772
5e648efca8c76520c918bb31,ma_choice_v3_pilot3,5e648efca8c76520c918bb31,0,Proximity to parks,original,2,2,64,,,1656,,2022-01-26 00:27:07,2773
5e648efca8c76520c918bb31,ma_choice_v3_pilot3,5e648efca8c76520c918bb31,5,Amount of natural light,original,2,2,86,,,1877,,2022-01-26 00:27:09,2774
5e648efca8c76520c918bb31,ma_choice_v3_pilot3,5e648efca8c76520c918bb31,1,Proximity to cafes/restaurants,original,2,2,64,,,2140,,2022-01-26 00:27:11,2775
5e648efca8c76520c918bb31,ma_choice_v3_pilot3,5e648efca8c76520c918bb31,11,Size of home,original,2,2,90,,,1928,,2022-01-26 00:27:13,2776
5e648efca8c76520c918bb31,ma_choice_v3_pilot3,5e648efca8c76520c918bb31,4,Reputation of closest school,original,2,2,0,,,2593,,2022-01-26 00:27:16,2777
5e648efca8c76520c918bb31,ma_choice_v3_pilot3,5e648efca8c76520c918bb31,9,Quality of heat/AC system,original,2,2,63,,,2234,,2022-01-26 00:27:18,2778
5e648efca8c76520c918bb31,ma_choice_v3_pilot3,5e648efca8c76520c918bb31,2,Proximity to public transportation,original,2,2,0,,,4075,,2022-01-26 00:27:22,2779
5e648efca8c76520c918bb31,ma_choice_v3_pilot3,5e648efca8c76520c918bb31,6,Year building was built,original,2,2,90,,,2426,,2022-01-26 00:27:25,2780
5e648efca8c76520c918bb31,ma_choice_v3_pilot3,5e648efca8c76520c918bb31,5,Amount of natural light,followup,2,2,,,,,,2022-01-26 00:28:11,2781
5e648efca8c76520c918bb31,ma_choice_v3_pilot3,5e648efca8c76520c918bb31,4,Reputation of closest school,followup,2,2,,,,,,2022-01-26 00:28:11,2782
5e648efca8c76520c918bb31,ma_choice_v3_pilot3,5e648efca8c76520c918bb31,1,Proximity to cafes/restaurants,followup,2,2,,,,,,2022-01-26 00:28:11,2783
5e648efca8c76520c918bb31,ma_choice_v3_pilot3,5e648efca8c76520c918bb31,9,Quality of heat/AC system,followup,2,2,,,,,,2022-01-26 00:28:11,2784
5e648efca8c76520c918bb31,ma_choice_v3_pilot3,5e648efca8c76520c918bb31,10,Amount of traffic,followup,2,2,,,,,,2022-01-26 00:28:11,2785
5e648efca8c76520c918bb31,ma_choice_v3_pilot3,5e648efca8c76520c918bb31,3,Noise pollution,followup,2,2,,,,,,2022-01-26 00:28:11,2786
5e648efca8c76520c918bb31,ma_choice_v3_pilot3,5e648efca8c76520c918bb31,6,Year building was built,followup,2,2,,,,,,2022-01-26 00:28:11,2787
5e648efca8c76520c918bb31,ma_choice_v3_pilot3,5e648efca8c76520c918bb31,8,Size of yard,followup,2,2,,,,,,2022-01-26 00:28:11,2788
5e648efca8c76520c918bb31,ma_choice_v3_pilot3,5e648efca8c76520c918bb31,11,Size of home,followup,2,2,,,,,,2022-01-26 00:28:11,2789
5e648efca8c76520c918bb31,ma_choice_v3_pilot3,5e648efca8c76520c918bb31,0,Proximity to parks,followup,2,2,,,,,,2022-01-26 00:28:11,2790
5e648efca8c76520c918bb31,ma_choice_v3_pilot3,5e648efca8c76520c918bb31,7,Amount of crime in neighborhood,followup,2,2,,,,,,2022-01-26 00:28:11,2791
5e648efca8c76520c918bb31,ma_choice_v3_pilot3,5e648efca8c76520c918bb31,2,Proximity to public transportation,followup,2,2,,,,,,2022-01-26 00:28:11,2792
5e648efca8c76520c918bb31,ma_choice_v3_pilot3,5e648efca8c76520c918bb31,1,Proximity to cafes/restaurants,direction,2,2,-1,25 min away,10 min away,5448,,2022-01-26 00:28:35,2793
5e648efca8c76520c918bb31,ma_choice_v3_pilot3,5e648efca8c76520c918bb31,0,Proximity to parks,direction,2,2,-1,25 min away,10 min away,2956,,2022-01-26 00:28:38,2794
5e648efca8c76520c918bb31,ma_choice_v3_pilot3,5e648efca8c76520c918bb31,2,Proximity to public transportation,direction,2,2,-1,25 min away,15 min away,5525,,2022-01-26 00:28:44,2795
5e648efca8c76520c918bb31,ma_choice_v3_pilot3,5e648efca8c76520c918bb31,7,Amount of crime in neighborhood,direction,2,2,-1,Very High,Very Low,4560,,2022-01-26 00:28:48,2796
5e648efca8c76520c918bb31,ma_choice_v3_pilot3,5e648efca8c76520c918bb31,4,Reputation of closest school,direction,2,2,-1,Very Bad,Moderate,5787,,2022-01-26 00:28:54,2797
5e648efca8c76520c918bb31,ma_choice_v3_pilot3,5e648efca8c76520c918bb31,3,Noise pollution,direction,2,2,-1,Very High,Low,2921,,2022-01-26 00:28:57,2798
5e648efca8c76520c918bb31,ma_choice_v3_pilot3,5e648efca8c76520c918bb31,6,Year building was built,direction,2,2,-1,1950,2020,4276,,2022-01-26 00:29:01,2799
5e648efca8c76520c918bb31,ma_choice_v3_pilot3,5e648efca8c76520c918bb31,11,Size of home,direction,2,2,-1,600 square feet,1800 square feet,3464,,2022-01-26 00:29:05,2800
5ec34daa8236521a70e0a4d7,ma_choice_v3_pilot3,5ec34daa8236521a70e0a4d7,11,Size of home,original,2,2,87,,,18390,,2022-01-26 00:29:08,2801
5e648efca8c76520c918bb31,ma_choice_v3_pilot3,5e648efca8c76520c918bb31,9,Quality of heat/AC system,direction,2,2,-1,Very Bad,Very Good,4964,,2022-01-26 00:29:10,2802
5e648efca8c76520c918bb31,ma_choice_v3_pilot3,5e648efca8c76520c918bb31,5,Amount of natural light,direction,2,2,-1,Very Little,A Lot,2505,,2022-01-26 00:29:12,2803
5e648efca8c76520c918bb31,ma_choice_v3_pilot3,5e648efca8c76520c918bb31,8,Size of yard,direction,2,2,-1,None,Large,2909,,2022-01-26 00:29:15,2804
5ec34daa8236521a70e0a4d7,ma_choice_v3_pilot3,5ec34daa8236521a70e0a4d7,7,Amount of crime in neighborhood,original,2,2,75,,,8868,,2022-01-26 00:29:16,2805
5e648efca8c76520c918bb31,ma_choice_v3_pilot3,5e648efca8c76520c918bb31,10,Amount of traffic,direction,2,2,-1,A Lot,A Little,5748,,2022-01-26 00:29:21,2806
5ec34daa8236521a70e0a4d7,ma_choice_v3_pilot3,5ec34daa8236521a70e0a4d7,4,Reputation of closest school,original,2,2,0,,,5189,,2022-01-26 00:29:22,2807
5ec34daa8236521a70e0a4d7,ma_choice_v3_pilot3,5ec34daa8236521a70e0a4d7,9,Quality of heat/AC system,original,2,2,24,,,4269,,2022-01-26 00:29:26,2808
5ec34daa8236521a70e0a4d7,ma_choice_v3_pilot3,5ec34daa8236521a70e0a4d7,8,Size of yard,original,2,2,75,,,5037,,2022-01-26 00:29:31,2809
5ec34daa8236521a70e0a4d7,ma_choice_v3_pilot3,5ec34daa8236521a70e0a4d7,0,Proximity to parks,original,2,2,37,,,6669,,2022-01-26 00:29:38,2810
5ec34daa8236521a70e0a4d7,ma_choice_v3_pilot3,5ec34daa8236521a70e0a4d7,6,Year building was built,original,2,2,24,,,4861,,2022-01-26 00:29:42,2811
5ec34daa8236521a70e0a4d7,ma_choice_v3_pilot3,5ec34daa8236521a70e0a4d7,10,Amount of traffic,original,2,2,0,,,3532,,2022-01-26 00:29:46,2812
5ec34daa8236521a70e0a4d7,ma_choice_v3_pilot3,5ec34daa8236521a70e0a4d7,2,Proximity to public transportation,original,2,2,12,,,4454,,2022-01-26 00:29:50,2813
5ec34daa8236521a70e0a4d7,ma_choice_v3_pilot3,5ec34daa8236521a70e0a4d7,5,Amount of natural light,original,2,2,12,,,4829,,2022-01-26 00:29:55,2814
5ec34daa8236521a70e0a4d7,ma_choice_v3_pilot3,5ec34daa8236521a70e0a4d7,1,Proximity to cafes/restaurants,original,2,2,24,,,6701,,2022-01-26 00:30:02,2815
5ec34daa8236521a70e0a4d7,ma_choice_v3_pilot3,5ec34daa8236521a70e0a4d7,3,Noise pollution,original,2,2,49,,,5598,,2022-01-26 00:30:08,2816
5ec34daa8236521a70e0a4d7,ma_choice_v3_pilot3,5ec34daa8236521a70e0a4d7,2,Proximity to public transportation,followup,2,2,,,,,,2022-01-26 00:30:34,2817
5ec34daa8236521a70e0a4d7,ma_choice_v3_pilot3,5ec34daa8236521a70e0a4d7,3,Noise pollution,followup,2,2,,,,,,2022-01-26 00:30:34,2818
5ec34daa8236521a70e0a4d7,ma_choice_v3_pilot3,5ec34daa8236521a70e0a4d7,10,Amount of traffic,followup,2,2,,,,,,2022-01-26 00:30:34,2819
5ec34daa8236521a70e0a4d7,ma_choice_v3_pilot3,5ec34daa8236521a70e0a4d7,4,Reputation of closest school,followup,2,2,,,,,,2022-01-26 00:30:34,2820
5ec34daa8236521a70e0a4d7,ma_choice_v3_pilot3,5ec34daa8236521a70e0a4d7,9,Quality of heat/AC system,followup,2,2,,,,,,2022-01-26 00:30:34,2821
5ec34daa8236521a70e0a4d7,ma_choice_v3_pilot3,5ec34daa8236521a70e0a4d7,1,Proximity to cafes/restaurants,followup,2,2,,,,,,2022-01-26 00:30:34,2822
5ec34daa8236521a70e0a4d7,ma_choice_v3_pilot3,5ec34daa8236521a70e0a4d7,0,Proximity to parks,followup,2,2,,,,,,2022-01-26 00:30:34,2823
5ec34daa8236521a70e0a4d7,ma_choice_v3_pilot3,5ec34daa8236521a70e0a4d7,7,Amount of crime in neighborhood,followup,2,2,,,,,,2022-01-26 00:30:34,2824
5ec34daa8236521a70e0a4d7,ma_choice_v3_pilot3,5ec34daa8236521a70e0a4d7,11,Size of home,followup,2,2,,,,,,2022-01-26 00:30:34,2825
5ec34daa8236521a70e0a4d7,ma_choice_v3_pilot3,5ec34daa8236521a70e0a4d7,5,Amount of natural light,followup,2,2,,,,,,2022-01-26 00:30:34,2826
5ec34daa8236521a70e0a4d7,ma_choice_v3_pilot3,5ec34daa8236521a70e0a4d7,6,Year building was built,followup,2,2,,,,,,2022-01-26 00:30:34,2827
5ec34daa8236521a70e0a4d7,ma_choice_v3_pilot3,5ec34daa8236521a70e0a4d7,8,Size of yard,followup,2,2,,,,,,2022-01-26 00:30:34,2828
5ec34daa8236521a70e0a4d7,ma_choice_v3_pilot3,5ec34daa8236521a70e0a4d7,0,Proximity to parks,direction,2,2,-1,25 min away,10 min away,23344,,2022-01-26 00:32:21,2829
5ec34daa8236521a70e0a4d7,ma_choice_v3_pilot3,5ec34daa8236521a70e0a4d7,6,Year building was built,direction,2,2,-1,1950,2020,11249,,2022-01-26 00:32:32,2830
5ec34daa8236521a70e0a4d7,ma_choice_v3_pilot3,5ec34daa8236521a70e0a4d7,8,Size of yard,direction,2,2,-1,None,Very Large,8026,,2022-01-26 00:32:40,2831
5ec34daa8236521a70e0a4d7,ma_choice_v3_pilot3,5ec34daa8236521a70e0a4d7,9,Quality of heat/AC system,direction,2,2,-1,Very Bad,Very Good,9713,,2022-01-26 00:32:50,2832
5ec34daa8236521a70e0a4d7,ma_choice_v3_pilot3,5ec34daa8236521a70e0a4d7,1,Proximity to cafes/restaurants,direction,2,2,-1,25 min away,10 min away,9482,,2022-01-26 00:32:59,2833
5ec34daa8236521a70e0a4d7,ma_choice_v3_pilot3,5ec34daa8236521a70e0a4d7,2,Proximity to public transportation,direction,2,2,-1,5 min away,10 min away,15754,,2022-01-26 00:33:15,2834
5ec34daa8236521a70e0a4d7,ma_choice_v3_pilot3,5ec34daa8236521a70e0a4d7,3,Noise pollution,direction,2,2,-1,Very High,Low,10201,,2022-01-26 00:33:25,2835
5ec34daa8236521a70e0a4d7,ma_choice_v3_pilot3,5ec34daa8236521a70e0a4d7,5,Amount of natural light,direction,2,2,-1,Very Little,A Moderate Amount,10808,,2022-01-26 00:33:36,2836
5ec34daa8236521a70e0a4d7,ma_choice_v3_pilot3,5ec34daa8236521a70e0a4d7,4,Reputation of closest school,direction,2,2,-1,Very Bad,Very Good,92058,,2022-01-26 00:35:08,2837
5ec34daa8236521a70e0a4d7,ma_choice_v3_pilot3,5ec34daa8236521a70e0a4d7,10,Amount of traffic,direction,2,2,-1,A Lot,Very Little,13883,,2022-01-26 00:35:22,2838
5ec34daa8236521a70e0a4d7,ma_choice_v3_pilot3,5ec34daa8236521a70e0a4d7,11,Size of home,direction,2,2,-1,600 square feet,1800 square feet,6072,,2022-01-26 00:35:28,2839
5ec34daa8236521a70e0a4d7,ma_choice_v3_pilot3,5ec34daa8236521a70e0a4d7,7,Amount of crime in neighborhood,direction,2,2,-1,Very High,Very Low,6305,,2022-01-26 00:35:34,2840
5f9822ed09bb3d07b22d6c8d,ma_choice_v3_pilot3,5f9822ed09bb3d07b22d6c8d,9,Quality of heat/AC system,original,2,2,0,,,3448,,2022-01-26 00:57:32,2841
5f9822ed09bb3d07b22d6c8d,ma_choice_v3_pilot3,5f9822ed09bb3d07b22d6c8d,1,Proximity to cafes/restaurants,original,2,2,0,,,2869,,2022-01-26 00:57:34,2842
5f9822ed09bb3d07b22d6c8d,ma_choice_v3_pilot3,5f9822ed09bb3d07b22d6c8d,10,Amount of traffic,original,2,2,40,,,3575,,2022-01-26 00:57:38,2843
5f9822ed09bb3d07b22d6c8d,ma_choice_v3_pilot3,5f9822ed09bb3d07b22d6c8d,8,Size of yard,original,2,2,25,,,5435,,2022-01-26 00:57:44,2844
5f9822ed09bb3d07b22d6c8d,ma_choice_v3_pilot3,5f9822ed09bb3d07b22d6c8d,7,Amount of crime in neighborhood,original,2,2,92,,,5893,,2022-01-26 00:57:49,2845
5f9822ed09bb3d07b22d6c8d,ma_choice_v3_pilot3,5f9822ed09bb3d07b22d6c8d,3,Noise pollution,original,2,2,24,,,3560,,2022-01-26 00:57:54,2846
5f9822ed09bb3d07b22d6c8d,ma_choice_v3_pilot3,5f9822ed09bb3d07b22d6c8d,0,Proximity to parks,original,2,2,6,,,3155,,2022-01-26 00:57:56,2847
5f9822ed09bb3d07b22d6c8d,ma_choice_v3_pilot3,5f9822ed09bb3d07b22d6c8d,6,Year building was built,original,2,2,35,,,4093,,2022-01-26 00:58:00,2848
5f9822ed09bb3d07b22d6c8d,ma_choice_v3_pilot3,5f9822ed09bb3d07b22d6c8d,4,Reputation of closest school,original,2,2,82,,,3117,,2022-01-26 00:58:03,2849
5f9822ed09bb3d07b22d6c8d,ma_choice_v3_pilot3,5f9822ed09bb3d07b22d6c8d,11,Size of home,original,2,2,39,,,5569,,2022-01-26 00:58:09,2850
5f9822ed09bb3d07b22d6c8d,ma_choice_v3_pilot3,5f9822ed09bb3d07b22d6c8d,5,Amount of natural light,original,2,2,25,,,3125,,2022-01-26 00:58:12,2851
5f9822ed09bb3d07b22d6c8d,ma_choice_v3_pilot3,5f9822ed09bb3d07b22d6c8d,2,Proximity to public transportation,original,2,2,14,,,5871,,2022-01-26 00:58:18,2852
5f9822ed09bb3d07b22d6c8d,ma_choice_v3_pilot3,5f9822ed09bb3d07b22d6c8d,5,Amount of natural light,followup,2,2,,,,,,2022-01-26 00:58:41,2853
5f9822ed09bb3d07b22d6c8d,ma_choice_v3_pilot3,5f9822ed09bb3d07b22d6c8d,1,Proximity to cafes/restaurants,followup,2,2,,,,,,2022-01-26 00:58:41,2854
5f9822ed09bb3d07b22d6c8d,ma_choice_v3_pilot3,5f9822ed09bb3d07b22d6c8d,6,Year building was built,followup,2,2,,,,,,2022-01-26 00:58:41,2855
5f9822ed09bb3d07b22d6c8d,ma_choice_v3_pilot3,5f9822ed09bb3d07b22d6c8d,2,Proximity to public transportation,followup,2,2,,,,,,2022-01-26 00:58:41,2856
5f9822ed09bb3d07b22d6c8d,ma_choice_v3_pilot3,5f9822ed09bb3d07b22d6c8d,4,Reputation of closest school,followup,2,2,,,,,,2022-01-26 00:58:41,2857
5f9822ed09bb3d07b22d6c8d,ma_choice_v3_pilot3,5f9822ed09bb3d07b22d6c8d,7,Amount of crime in neighborhood,followup,2,2,,,,,,2022-01-26 00:58:41,2858
5f9822ed09bb3d07b22d6c8d,ma_choice_v3_pilot3,5f9822ed09bb3d07b22d6c8d,8,Size of yard,followup,2,2,,,,,,2022-01-26 00:58:41,2859
5f9822ed09bb3d07b22d6c8d,ma_choice_v3_pilot3,5f9822ed09bb3d07b22d6c8d,0,Proximity to parks,followup,2,2,,,,,,2022-01-26 00:58:41,2860
5f9822ed09bb3d07b22d6c8d,ma_choice_v3_pilot3,5f9822ed09bb3d07b22d6c8d,10,Amount of traffic,followup,2,2,,,,,,2022-01-26 00:58:41,2861
5f9822ed09bb3d07b22d6c8d,ma_choice_v3_pilot3,5f9822ed09bb3d07b22d6c8d,9,Quality of heat/AC system,followup,2,2,,,,,,2022-01-26 00:58:41,2862
5f9822ed09bb3d07b22d6c8d,ma_choice_v3_pilot3,5f9822ed09bb3d07b22d6c8d,3,Noise pollution,followup,2,2,,,,,,2022-01-26 00:58:41,2863
5f9822ed09bb3d07b22d6c8d,ma_choice_v3_pilot3,5f9822ed09bb3d07b22d6c8d,11,Size of home,followup,2,2,,,,,,2022-01-26 00:58:41,2864
5f9822ed09bb3d07b22d6c8d,ma_choice_v3_pilot3,5f9822ed09bb3d07b22d6c8d,1,Proximity to cafes/restaurants,direction,2,2,-1,25 min away,10 min away,12801,,2022-01-26 00:59:37,2865
5f9822ed09bb3d07b22d6c8d,ma_choice_v3_pilot3,5f9822ed09bb3d07b22d6c8d,7,Amount of crime in neighborhood,direction,2,2,-1,Very High,Very Low,4753,,2022-01-26 00:59:42,2866
5f9822ed09bb3d07b22d6c8d,ma_choice_v3_pilot3,5f9822ed09bb3d07b22d6c8d,6,Year building was built,direction,2,2,-1,1950,2020,8510,,2022-01-26 00:59:50,2867
5f9822ed09bb3d07b22d6c8d,ma_choice_v3_pilot3,5f9822ed09bb3d07b22d6c8d,5,Amount of natural light,direction,2,2,-1,Very Little,A Moderate Amount,10566,,2022-01-26 01:00:01,2868
5f9822ed09bb3d07b22d6c8d,ma_choice_v3_pilot3,5f9822ed09bb3d07b22d6c8d,10,Amount of traffic,direction,2,2,-1,A Lot,Very Little,8172,,2022-01-26 01:00:09,2869
5f9822ed09bb3d07b22d6c8d,ma_choice_v3_pilot3,5f9822ed09bb3d07b22d6c8d,0,Proximity to parks,direction,2,2,-1,25 min away,5 min away,6148,,2022-01-26 01:00:16,2870
5f9822ed09bb3d07b22d6c8d,ma_choice_v3_pilot3,5f9822ed09bb3d07b22d6c8d,4,Reputation of closest school,direction,2,2,-1,Very Bad,Very Good,8053,,2022-01-26 01:00:23,2871
5f9822ed09bb3d07b22d6c8d,ma_choice_v3_pilot3,5f9822ed09bb3d07b22d6c8d,3,Noise pollution,direction,2,2,-1,Very High,Low,8450,,2022-01-26 01:00:32,2872
5f9822ed09bb3d07b22d6c8d,ma_choice_v3_pilot3,5f9822ed09bb3d07b22d6c8d,9,Quality of heat/AC system,direction,2,2,-1,Very Bad,Very Good,12853,,2022-01-26 01:00:45,2873
5f9822ed09bb3d07b22d6c8d,ma_choice_v3_pilot3,5f9822ed09bb3d07b22d6c8d,8,Size of yard,direction,2,2,-1,None,Medium,7610,,2022-01-26 01:00:52,2874
5f9822ed09bb3d07b22d6c8d,ma_choice_v3_pilot3,5f9822ed09bb3d07b22d6c8d,2,Proximity to public transportation,direction,2,2,-1,25 min away,5 min away,5578,,2022-01-26 01:00:58,2875
5f9822ed09bb3d07b22d6c8d,ma_choice_v3_pilot3,5f9822ed09bb3d07b22d6c8d,11,Size of home,direction,2,2,-1,600 square feet,1200 square feet,5233,,2022-01-26 01:01:03,2876
