"","subject","version","assignmentId","trial","practice","opt1_id","opt2_id","attributes","opt1_values","opt2_values","choice","rt","stamp","id","Number of Bedrooms.opt1","Size of Garage.opt1","Amount of Crime in Neighborhood.opt1","Proximity to Parks.opt1","Proximity to Waterfront/Beaches.opt1","Proximity to Cafes/Restaurants.opt1","Noise Pollution.opt1","Reputation of Closest School.opt1","Amount of Natural Light.opt1","Age of Building.opt1","Washer/Dryer.opt1","Size of Yard.opt1","Fireplace.opt1","Central AC.opt1","Climate of Area.opt1","Hardwood Floors.opt1","Freshly Painted Exterior.opt1","Size of Home.opt1","Number of Bedrooms.opt2","Size of Garage.opt2","Amount of Crime in Neighborhood.opt2","Proximity to Parks.opt2","Proximity to Waterfront/Beaches.opt2","Proximity to Cafes/Restaurants.opt2","Noise Pollution.opt2","Reputation of Closest School.opt2","Amount of Natural Light.opt2","Age of Building.opt2","Washer/Dryer.opt2","Size of Yard.opt2","Fireplace.opt2","Central AC.opt2","Climate of Area.opt2","Hardwood Floors.opt2","Freshly Painted Exterior.opt2","Size of Home.opt2","att.nums"
"1","5796466d25cb71000128b16c","ma_choice_v2_pilot1",NA,0,0,-1,-1,"Size of Yard,Fireplace,Amount of Natural Light,Central AC,Climate of Area,Noise Pollution,Washer/Dryer","None,Yes,No natural light,Yes,Very Good,High,Yes","None,Yes,A lot of natural light,No,Very Good,High,Yes",1,13252,"2021-10-07 15:31:56",2358,NA,NA,NA,NA,NA,NA,3,NA,1,NA,2,1,2,2,5,NA,NA,NA,NA,NA,NA,NA,NA,NA,3,NA,4,NA,2,1,2,1,5,NA,NA,NA,"12,13,9,14,15,7,11"
"2","5796466d25cb71000128b16c","ma_choice_v2_pilot1",NA,1,0,-1,-1,"Fireplace,Central AC,Proximity to Cafes/Restaurants,Number of Bedrooms,Freshly Painted Exterior,Hardwood Floors,Washer/Dryer","No,No,20 min,2,No,Yes,No","Yes,Yes,10 min,3,No,Yes,Yes",1,19395,"2021-10-07 15:32:17",2373,2,NA,NA,NA,NA,20,NA,NA,NA,NA,1,NA,1,1,NA,2,1,NA,3,NA,NA,NA,NA,10,NA,NA,NA,NA,2,NA,2,2,NA,2,1,NA,"13,14,6,1,17,16,11"
"3","5796466d25cb71000128b16c","ma_choice_v2_pilot1",NA,2,0,-1,-1,"Washer/Dryer,Size of Yard,Freshly Painted Exterior,Proximity to Parks,Size of Garage,Size of Home,Central AC","No,None,No,20 min,Small,480 sq feet,No","No,Medium,No,20 min,None,1068 sq feet,No",1,17786,"2021-10-07 15:32:36",2387,NA,2,NA,20,NA,NA,NA,NA,NA,NA,1,1,NA,1,NA,NA,1,480,NA,1,NA,20,NA,NA,NA,NA,NA,NA,1,3,NA,1,NA,NA,1,1068,"11,12,17,4,2,18,14"
"4","5796466d25cb71000128b16c","ma_choice_v2_pilot1",NA,3,0,-1,-1,"Size of Home,Size of Yard,Reputation of Closest School,Proximity to Waterfront/Beaches,Number of Bedrooms,Fireplace,Proximity to Cafes/Restaurants","1831 sq feet,Large,Moderate,120 minutes,3,No,5 min","799 sq feet,Large,Bad,60 min,3,No,10 min",0,16100,"2021-10-07 15:32:53",2398,3,NA,NA,NA,120,5,NA,3,NA,NA,NA,4,1,NA,NA,NA,NA,1831,3,NA,NA,NA,60,10,NA,2,NA,NA,NA,4,1,NA,NA,NA,NA,799,"18,12,8,5,1,13,6"
"5","5796466d25cb71000128b16c","ma_choice_v2_pilot1",NA,4,0,-1,-1,"Central AC,Climate of Area,Reputation of Closest School,Washer/Dryer,Freshly Painted Exterior,Age of Building,Proximity to Parks","Yes,Bad,Bad,No,Yes,Old,5 min","No,Moderate,Good,No,No,New,10 min",1,12867,"2021-10-07 15:33:06",2407,NA,NA,NA,5,NA,NA,NA,2,NA,1,1,NA,NA,2,2,NA,2,NA,NA,NA,NA,10,NA,NA,NA,4,NA,3,1,NA,NA,1,3,NA,1,NA,"14,15,8,11,17,10,4"
"6","5796466d25cb71000128b16c","ma_choice_v2_pilot1",NA,5,0,-1,-1,"Fireplace,Amount of Natural Light,Freshly Painted Exterior,Size of Yard,Washer/Dryer,Size of Home,Proximity to Parks","No,Moderate natural light,Yes,Medium,No,1746 sq feet,20 min","Yes,Moderate natural light,No,Small,No,1405 sq feet,10 min",0,35665,"2021-10-07 15:33:43",2430,NA,NA,NA,20,NA,NA,NA,NA,3,NA,1,3,1,NA,NA,NA,2,1746,NA,NA,NA,10,NA,NA,NA,NA,3,NA,1,2,2,NA,NA,NA,1,1405,"13,9,17,12,11,18,4"
"7","5796466d25cb71000128b16c","ma_choice_v2_pilot1",NA,6,0,-1,-1,"Amount of Natural Light,Proximity to Parks,Size of Home,Noise Pollution,Size of Garage,Amount of Crime in Neighborhood,Washer/Dryer","Moderate natural light,20 min,1782 sq feet,Low,Medium,High,Yes","No natural light,10 min,1873 sq feet,High,None,High,Yes",0,41186,"2021-10-07 15:34:25",2453,NA,3,4,20,NA,NA,1,NA,3,NA,2,NA,NA,NA,NA,NA,NA,1782,NA,1,4,10,NA,NA,3,NA,1,NA,2,NA,NA,NA,NA,NA,NA,1873,"9,4,18,7,2,3,11"
"8","5796466d25cb71000128b16c","ma_choice_v2_pilot1",NA,7,0,-1,-1,"Hardwood Floors,Climate of Area,Washer/Dryer,Age of Building,Amount of Crime in Neighborhood,Size of Garage,Freshly Painted Exterior","No,Very Bad,Yes,New,Moderate,Medium,Yes","Yes,Moderate,Yes,Medium,Very Low,Large,Yes",1,14583,"2021-10-07 15:34:41",2461,NA,3,3,NA,NA,NA,NA,NA,NA,3,2,NA,NA,NA,1,1,2,NA,NA,4,1,NA,NA,NA,NA,NA,NA,2,2,NA,NA,NA,3,2,2,NA,"16,15,11,10,3,2,17"
"9","5796466d25cb71000128b16c","ma_choice_v2_pilot1",NA,8,0,-1,-1,"Age of Building,Washer/Dryer,Size of Yard,Fireplace,Freshly Painted Exterior,Amount of Crime in Neighborhood,Proximity to Cafes/Restaurants","Medium,Yes,Large,No,Yes,Low,20 min","New,No,Medium,Yes,Yes,High,5 min",0,8034,"2021-10-07 15:34:50",2465,NA,NA,2,NA,NA,20,NA,NA,NA,2,2,4,1,NA,NA,NA,2,NA,NA,NA,4,NA,NA,5,NA,NA,NA,3,1,3,2,NA,NA,NA,2,NA,"10,11,12,13,17,3,6"
"10","5796466d25cb71000128b16c","ma_choice_v2_pilot1",NA,9,0,-1,-1,"Size of Home,Reputation of Closest School,Washer/Dryer,Size of Garage,Number of Bedrooms,Noise Pollution,Central AC","1382 sq feet,Very Good,No,Large,3,Medium,Yes","799 sq feet,Moderate,Yes,Small,3,High,Yes",0,13498,"2021-10-07 15:35:04",2472,3,4,NA,NA,NA,NA,2,5,NA,NA,1,NA,NA,2,NA,NA,NA,1382,3,2,NA,NA,NA,NA,3,3,NA,NA,2,NA,NA,2,NA,NA,NA,799,"18,8,11,2,1,7,14"
"11","5796466d25cb71000128b16c","ma_choice_v2_pilot1",NA,10,0,-1,-1,"Proximity to Parks,Reputation of Closest School,Proximity to Waterfront/Beaches,Hardwood Floors,Proximity to Cafes/Restaurants,Fireplace,Amount of Natural Light","20 min,Very Bad,90 minutes,No,20 min,No,A little natural light","10 min,Bad,30 min,No,20 min,Yes,Moderate natural light",1,12268,"2021-10-07 15:35:18",2482,NA,NA,NA,20,90,20,NA,1,2,NA,NA,NA,1,NA,NA,1,NA,NA,NA,NA,NA,10,30,20,NA,2,3,NA,NA,NA,2,NA,NA,1,NA,NA,"4,8,5,16,6,13,9"
"12","5796466d25cb71000128b16c","ma_choice_v2_pilot1",NA,11,0,-1,-1,"Size of Home,Noise Pollution,Fireplace,Hardwood Floors,Amount of Crime in Neighborhood,Climate of Area,Amount of Natural Light","548 sq feet,Medium,No,Yes,Moderate,Very Good,A little natural light","928 sq feet,Medium,No,No,Very High,Moderate,Moderate natural light",0,13124,"2021-10-07 15:35:32",2490,NA,NA,3,NA,NA,NA,2,NA,2,NA,NA,NA,1,NA,5,2,NA,548,NA,NA,5,NA,NA,NA,2,NA,3,NA,NA,NA,1,NA,3,1,NA,928,"18,7,13,16,3,15,9"
"13","5796466d25cb71000128b16c","ma_choice_v2_pilot1",NA,12,0,-1,-1,"Proximity to Waterfront/Beaches,Freshly Painted Exterior,Reputation of Closest School,Amount of Crime in Neighborhood,Size of Yard,Proximity to Parks,Central AC","60 min,Yes,Very Good,Moderate,None,20 min,No","120 minutes,Yes,Very Good,High,Small,10 min,Yes",0,11196,"2021-10-07 15:35:44",2496,NA,NA,3,20,60,NA,NA,5,NA,NA,NA,1,NA,1,NA,NA,2,NA,NA,NA,4,10,120,NA,NA,5,NA,NA,NA,2,NA,2,NA,NA,2,NA,"5,17,8,3,12,4,14"
"14","5796466d25cb71000128b16c","ma_choice_v2_pilot1",NA,13,0,-1,-1,"Freshly Painted Exterior,Size of Garage,Proximity to Cafes/Restaurants,Proximity to Parks,Central AC,Climate of Area,Amount of Crime in Neighborhood","No,None,20 min,20 min,No,Very Bad,Very Low","Yes,Large,10 min,5 min,No,Very Bad,Low",1,18660,"2021-10-07 15:36:04",2508,NA,1,1,20,NA,20,NA,NA,NA,NA,NA,NA,NA,1,1,NA,1,NA,NA,4,2,5,NA,10,NA,NA,NA,NA,NA,NA,NA,1,1,NA,2,NA,"17,2,6,4,14,15,3"
"15","5796466d25cb71000128b16c","ma_choice_v2_pilot1",NA,14,0,-1,-1,"Amount of Natural Light,Hardwood Floors,Proximity to Waterfront/Beaches,Age of Building,Climate of Area,Size of Home,Freshly Painted Exterior","Moderate natural light,No,120 minutes,Old,Very Bad,1918 sq feet,No","Moderate natural light,No,30 min,Medium,Very Good,1659 sq feet,Yes",1,11779,"2021-10-07 15:36:16",2514,NA,NA,NA,NA,120,NA,NA,NA,3,1,NA,NA,NA,NA,1,1,1,1918,NA,NA,NA,NA,30,NA,NA,NA,3,2,NA,NA,NA,NA,5,1,2,1659,"9,16,5,10,15,18,17"
"16","5796466d25cb71000128b16c","ma_choice_v2_pilot1",NA,15,0,-1,-1,"Proximity to Waterfront/Beaches,Climate of Area,Central AC,Noise Pollution,Number of Bedrooms,Freshly Painted Exterior,Age of Building","90 minutes,Moderate,No,Medium,3,Yes,New","120 minutes,Moderate,No,Medium,1,No,New",0,8028,"2021-10-07 15:36:26",2520,3,NA,NA,NA,90,NA,2,NA,NA,3,NA,NA,NA,1,3,NA,2,NA,1,NA,NA,NA,120,NA,2,NA,NA,3,NA,NA,NA,1,3,NA,1,NA,"5,15,14,7,1,17,10"
"17","5796466d25cb71000128b16c","ma_choice_v2_pilot1",NA,16,0,-1,-1,"Proximity to Cafes/Restaurants,Central AC,Freshly Painted Exterior,Proximity to Parks,Size of Garage,Proximity to Waterfront/Beaches,Reputation of Closest School","5 min,No,Yes,5 min,Small,120 minutes,Good","5 min,Yes,Yes,10 min,None,120 minutes,Very Good",1,21552,"2021-10-07 15:36:48",2534,NA,2,NA,5,120,5,NA,4,NA,NA,NA,NA,NA,1,NA,NA,2,NA,NA,1,NA,10,120,5,NA,5,NA,NA,NA,NA,NA,2,NA,NA,2,NA,"6,14,17,4,2,5,8"
"18","5796466d25cb71000128b16c","ma_choice_v2_pilot1",NA,17,0,-1,-1,"Size of Yard,Hardwood Floors,Amount of Crime in Neighborhood,Freshly Painted Exterior,Fireplace,Proximity to Cafes/Restaurants,Central AC","Large,No,Very Low,Yes,No,20 min,No","Medium,No,Very Low,Yes,No,5 min,Yes",1,14571,"2021-10-07 15:37:04",2544,NA,NA,1,NA,NA,20,NA,NA,NA,NA,NA,4,1,1,NA,1,2,NA,NA,NA,1,NA,NA,5,NA,NA,NA,NA,NA,3,1,2,NA,1,2,NA,"12,16,3,17,13,6,14"
"19","5796466d25cb71000128b16c","ma_choice_v2_pilot1",NA,18,0,-1,-1,"Number of Bedrooms,Size of Yard,Amount of Natural Light,Hardwood Floors,Central AC,Proximity to Waterfront/Beaches,Fireplace","2,Small,No natural light,No,No,10 min,No","2,Medium,Moderate natural light,No,No,90 minutes,Yes",0,13050,"2021-10-07 15:37:18",2553,2,NA,NA,NA,10,NA,NA,NA,1,NA,NA,2,1,1,NA,1,NA,NA,2,NA,NA,NA,90,NA,NA,NA,3,NA,NA,3,2,1,NA,1,NA,NA,"1,12,9,16,14,5,13"
"20","5796466d25cb71000128b16c","ma_choice_v2_pilot1",NA,19,0,-1,-1,"Proximity to Parks,Noise Pollution,Size of Home,Size of Yard,Reputation of Closest School,Hardwood Floors,Climate of Area","20 min,Medium,1576 sq feet,None,Moderate,No,Very Bad","20 min,Medium,1476 sq feet,Large,Bad,No,Very Bad",1,22826,"2021-10-07 15:37:42",2565,NA,NA,NA,20,NA,NA,2,3,NA,NA,NA,1,NA,NA,1,1,NA,1576,NA,NA,NA,20,NA,NA,2,2,NA,NA,NA,4,NA,NA,1,1,NA,1476,"4,7,18,12,8,16,15"
"21","5796466d25cb71000128b16c","ma_choice_v2_pilot1",NA,20,0,-1,-1,"Climate of Area,Proximity to Parks,Fireplace,Freshly Painted Exterior,Age of Building,Proximity to Waterfront/Beaches,Noise Pollution","Good,5 min,No,Yes,Medium,120 minutes,Medium","Very Bad,10 min,Yes,Yes,Old,120 minutes,High",0,13850,"2021-10-07 15:37:57",2571,NA,NA,NA,5,120,NA,2,NA,NA,2,NA,NA,1,NA,4,NA,2,NA,NA,NA,NA,10,120,NA,3,NA,NA,1,NA,NA,2,NA,1,NA,2,NA,"15,4,13,17,10,5,7"
"22","5796466d25cb71000128b16c","ma_choice_v2_pilot1",NA,21,0,-1,-1,"Proximity to Cafes/Restaurants,Proximity to Waterfront/Beaches,Amount of Natural Light,Size of Home,Age of Building,Amount of Crime in Neighborhood,Proximity to Parks","20 min,30 min,Moderate natural light,1877 sq feet,Old,Moderate,20 min","10 min,10 min,A little natural light,1519 sq feet,New,Very High,10 min",0,14180,"2021-10-07 15:38:15",2579,NA,NA,3,20,30,20,NA,NA,3,1,NA,NA,NA,NA,NA,NA,NA,1877,NA,NA,5,10,10,10,NA,NA,2,3,NA,NA,NA,NA,NA,NA,NA,1519,"6,5,9,18,10,3,4"
"23","5796466d25cb71000128b16c","ma_choice_v2_pilot1",NA,22,0,-1,-1,"Central AC,Washer/Dryer,Amount of Natural Light,Size of Yard,Size of Garage,Freshly Painted Exterior,Hardwood Floors","No,Yes,No natural light,Medium,Medium,No,No","No,No,A lot of natural light,Large,Small,No,Yes",1,14788,"2021-10-07 15:38:27",2589,NA,3,NA,NA,NA,NA,NA,NA,1,NA,2,3,NA,1,NA,1,1,NA,NA,2,NA,NA,NA,NA,NA,NA,4,NA,1,4,NA,1,NA,2,1,NA,"14,11,9,12,2,17,16"
"24","5796466d25cb71000128b16c","ma_choice_v2_pilot1",NA,23,0,-1,-1,"Number of Bedrooms,Washer/Dryer,Size of Yard,Fireplace,Central AC,Size of Home,Proximity to Waterfront/Beaches","3,Yes,Medium,Yes,Yes,887 sq feet,30 min","1,No,Large,No,No,772 sq feet,10 min",0,8949,"2021-10-07 15:38:37",2595,3,NA,NA,NA,30,NA,NA,NA,NA,NA,2,3,2,2,NA,NA,NA,887,1,NA,NA,NA,10,NA,NA,NA,NA,NA,1,4,1,1,NA,NA,NA,772,"1,11,12,13,14,18,5"
"25","5796466d25cb71000128b16c","ma_choice_v2_pilot1",NA,24,0,-1,-1,"Central AC,Freshly Painted Exterior,Proximity to Cafes/Restaurants,Reputation of Closest School,Amount of Natural Light,Hardwood Floors,Proximity to Parks","Yes,Yes,10 min,Very Good,Moderate natural light,No,10 min","No,Yes,5 min,Bad,No natural light,Yes,5 min",0,8524,"2021-10-07 15:38:47",2598,NA,NA,NA,10,NA,10,NA,5,3,NA,NA,NA,NA,2,NA,1,2,NA,NA,NA,NA,5,NA,5,NA,2,1,NA,NA,NA,NA,1,NA,2,2,NA,"14,17,6,8,9,16,4"
"26","5796466d25cb71000128b16c","ma_choice_v2_pilot1",NA,25,0,-1,-1,"Noise Pollution,Size of Home,Number of Bedrooms,Amount of Natural Light,Freshly Painted Exterior,Proximity to Waterfront/Beaches,Hardwood Floors","Low,1926 sq feet,1,A lot of natural light,Yes,10 min,No","High,1447 sq feet,3,A little natural light,Yes,60 min,Yes",1,15184,"2021-10-07 15:39:03",2607,1,NA,NA,NA,10,NA,1,NA,4,NA,NA,NA,NA,NA,NA,1,2,1926,3,NA,NA,NA,60,NA,3,NA,2,NA,NA,NA,NA,NA,NA,2,2,1447,"7,18,1,9,17,5,16"
"27","5796466d25cb71000128b16c","ma_choice_v2_pilot1",NA,26,0,-1,-1,"Size of Home,Proximity to Waterfront/Beaches,Proximity to Cafes/Restaurants,Number of Bedrooms,Noise Pollution,Climate of Area,Washer/Dryer","1875 sq feet,60 min,20 min,1,Medium,Very Bad,No","1823 sq feet,10 min,5 min,3,High,Moderate,No",1,11394,"2021-10-07 15:39:15",2613,1,NA,NA,NA,60,20,2,NA,NA,NA,1,NA,NA,NA,1,NA,NA,1875,3,NA,NA,NA,10,5,3,NA,NA,NA,1,NA,NA,NA,3,NA,NA,1823,"18,5,6,1,7,15,11"
"28","5796466d25cb71000128b16c","ma_choice_v2_pilot1",NA,27,0,-1,-1,"Size of Yard,Age of Building,Freshly Painted Exterior,Hardwood Floors,Proximity to Waterfront/Beaches,Central AC,Fireplace","Medium,Old,Yes,Yes,10 min,Yes,Yes","None,Medium,No,Yes,120 minutes,Yes,Yes",0,12707,"2021-10-07 15:39:29",2622,NA,NA,NA,NA,10,NA,NA,NA,NA,1,NA,3,2,2,NA,2,2,NA,NA,NA,NA,NA,120,NA,NA,NA,NA,2,NA,1,2,2,NA,2,1,NA,"12,10,17,16,5,14,13"
"29","5796466d25cb71000128b16c","ma_choice_v2_pilot1",NA,28,0,-1,-1,"Age of Building,Noise Pollution,Size of Home,Hardwood Floors,Size of Garage,Number of Bedrooms,Proximity to Parks","Medium,Medium,1749 sq feet,No,Small,3,10 min","Old,High,1747 sq feet,Yes,Large,2,20 min",0,8970,"2021-10-07 15:39:39",2630,3,2,NA,10,NA,NA,2,NA,NA,2,NA,NA,NA,NA,NA,1,NA,1749,2,4,NA,20,NA,NA,3,NA,NA,1,NA,NA,NA,NA,NA,2,NA,1747,"10,7,18,16,2,1,4"
"30","5796466d25cb71000128b16c","ma_choice_v2_pilot1",NA,29,0,-1,-1,"Central AC,Amount of Natural Light,Climate of Area,Proximity to Cafes/Restaurants,Size of Home,Size of Garage,Fireplace","No,A little natural light,Very Bad,5 min,444 sq feet,Medium,Yes","No,Moderate natural light,Moderate,10 min,1382 sq feet,Small,Yes",1,14688,"2021-10-07 15:39:55",2643,NA,3,NA,NA,NA,5,NA,NA,2,NA,NA,NA,2,1,1,NA,NA,444,NA,2,NA,NA,NA,10,NA,NA,3,NA,NA,NA,2,1,3,NA,NA,1382,"14,9,15,6,18,2,13"
"31","5796466d25cb71000128b16c","ma_choice_v2_pilot1",NA,30,0,-1,-1,"Proximity to Waterfront/Beaches,Central AC,Size of Yard,Hardwood Floors,Number of Bedrooms,Proximity to Cafes/Restaurants,Washer/Dryer","120 minutes,Yes,Medium,No,3,20 min,Yes","90 minutes,Yes,Medium,Yes,2,10 min,No",0,11026,"2021-10-07 15:40:10",2650,3,NA,NA,NA,120,20,NA,NA,NA,NA,2,3,NA,2,NA,1,NA,NA,2,NA,NA,NA,90,10,NA,NA,NA,NA,1,3,NA,2,NA,2,NA,NA,"5,14,12,16,1,6,11"
"32","5796466d25cb71000128b16c","ma_choice_v2_pilot1",NA,31,0,-1,-1,"Size of Home,Fireplace,Noise Pollution,Amount of Crime in Neighborhood,Reputation of Closest School,Washer/Dryer,Climate of Area","1847 sq feet,Yes,Medium,Very High,Very Good,Yes,Moderate","1983 sq feet,Yes,Medium,Low,Moderate,No,Very Good",1,9532,"2021-10-07 15:40:18",2661,NA,NA,5,NA,NA,NA,2,5,NA,NA,2,NA,2,NA,3,NA,NA,1847,NA,NA,2,NA,NA,NA,2,3,NA,NA,1,NA,2,NA,5,NA,NA,1983,"18,13,7,3,8,11,15"
"33","5796466d25cb71000128b16c","ma_choice_v2_pilot1",NA,32,0,-1,-1,"Age of Building,Proximity to Parks,Amount of Crime in Neighborhood,Proximity to Waterfront/Beaches,Hardwood Floors,Freshly Painted Exterior,Number of Bedrooms","New,20 min,High,90 minutes,Yes,Yes,1","Medium,20 min,Very Low,60 min,No,No,3",1,10155,"2021-10-07 15:40:29",2670,1,NA,4,20,90,NA,NA,NA,NA,3,NA,NA,NA,NA,NA,2,2,NA,3,NA,1,20,60,NA,NA,NA,NA,2,NA,NA,NA,NA,NA,1,1,NA,"10,4,3,5,16,17,1"
"34","5796466d25cb71000128b16c","ma_choice_v2_pilot1",NA,33,0,-1,-1,"Amount of Natural Light,Proximity to Cafes/Restaurants,Proximity to Waterfront/Beaches,Climate of Area,Proximity to Parks,Freshly Painted Exterior,Age of Building","A lot of natural light,5 min,30 min,Moderate,20 min,No,New","A lot of natural light,5 min,60 min,Bad,20 min,Yes,Medium",0,14054,"2021-10-07 15:40:44",2682,NA,NA,NA,20,30,5,NA,NA,4,3,NA,NA,NA,NA,3,NA,1,NA,NA,NA,NA,20,60,5,NA,NA,4,2,NA,NA,NA,NA,2,NA,2,NA,"9,6,5,15,4,17,10"
"35","5796466d25cb71000128b16c","ma_choice_v2_pilot1",NA,34,0,-1,-1,"Size of Garage,Washer/Dryer,Size of Yard,Fireplace,Climate of Area,Central AC,Noise Pollution","Small,No,None,No,Good,Yes,Medium","None,Yes,Small,No,Very Good,No,Low",1,13673,"2021-10-07 15:40:58",2693,NA,2,NA,NA,NA,NA,2,NA,NA,NA,1,1,1,2,4,NA,NA,NA,NA,1,NA,NA,NA,NA,1,NA,NA,NA,2,2,1,1,5,NA,NA,NA,"2,11,12,13,15,14,7"
"36","5796466d25cb71000128b16c","ma_choice_v2_pilot1",NA,35,0,-1,-1,"Freshly Painted Exterior,Noise Pollution,Number of Bedrooms,Hardwood Floors,Age of Building,Washer/Dryer,Size of Yard","No,Medium,2,No,Medium,No,None","Yes,Low,3,Yes,Medium,No,Medium",1,8939,"2021-10-07 15:41:08",2699,2,NA,NA,NA,NA,NA,2,NA,NA,2,1,1,NA,NA,NA,1,1,NA,3,NA,NA,NA,NA,NA,1,NA,NA,2,1,3,NA,NA,NA,2,2,NA,"17,7,1,16,10,11,12"
"37","5796466d25cb71000128b16c","ma_choice_v2_pilot1",NA,36,0,-1,-1,"Fireplace,Age of Building,Amount of Crime in Neighborhood,Amount of Natural Light,Size of Garage,Proximity to Parks,Reputation of Closest School","Yes,Old,Moderate,No natural light,None,5 min,Bad","Yes,New,Very Low,A little natural light,Large,10 min,Very Bad",1,8419,"2021-10-07 15:41:18",2703,NA,1,3,5,NA,NA,NA,2,1,1,NA,NA,2,NA,NA,NA,NA,NA,NA,4,1,10,NA,NA,NA,1,2,3,NA,NA,2,NA,NA,NA,NA,NA,"13,10,3,9,2,4,8"
"38","5796466d25cb71000128b16c","ma_choice_v2_pilot1",NA,37,0,-1,-1,"Proximity to Cafes/Restaurants,Fireplace,Central AC,Size of Home,Hardwood Floors,Proximity to Waterfront/Beaches,Reputation of Closest School","20 min,No,No,1082 sq feet,No,30 min,Bad","5 min,Yes,No,1777 sq feet,No,30 min,Moderate",1,14146,"2021-10-07 15:41:33",2713,NA,NA,NA,NA,30,20,NA,2,NA,NA,NA,NA,1,1,NA,1,NA,1082,NA,NA,NA,NA,30,5,NA,3,NA,NA,NA,NA,2,1,NA,1,NA,1777,"6,13,14,18,16,5,8"
"39","5796466d25cb71000128b16c","ma_choice_v2_pilot1",NA,38,0,-1,-1,"Freshly Painted Exterior,Size of Home,Age of Building,Proximity to Parks,Proximity to Cafes/Restaurants,Amount of Natural Light,Size of Garage","Yes,967 sq feet,New,5 min,5 min,A little natural light,Large","Yes,921 sq feet,New,20 min,5 min,No natural light,Small",0,14955,"2021-10-07 15:41:49",2720,NA,4,NA,5,NA,5,NA,NA,2,3,NA,NA,NA,NA,NA,NA,2,967,NA,2,NA,20,NA,5,NA,NA,1,3,NA,NA,NA,NA,NA,NA,2,921,"17,18,10,4,6,9,2"
"40","5796466d25cb71000128b16c","ma_choice_v2_pilot1",NA,39,0,-1,-1,"Proximity to Waterfront/Beaches,Proximity to Cafes/Restaurants,Central AC,Freshly Painted Exterior,Proximity to Parks,Washer/Dryer,Age of Building","90 minutes,5 min,No,No,10 min,Yes,Medium","60 min,20 min,No,Yes,5 min,Yes,New",0,14642,"2021-10-07 15:42:04",2728,NA,NA,NA,10,90,5,NA,NA,NA,2,2,NA,NA,1,NA,NA,1,NA,NA,NA,NA,5,60,20,NA,NA,NA,3,2,NA,NA,1,NA,NA,2,NA,"5,6,14,17,4,11,10"
"41","5796466d25cb71000128b16c","ma_choice_v2_pilot1",NA,40,0,-1,-1,"Hardwood Floors,Central AC,Climate of Area,Age of Building,Size of Yard,Washer/Dryer,Proximity to Parks","Yes,Yes,Good,Old,None,No,20 min","Yes,No,Good,Old,Small,No,10 min",0,13503,"2021-10-07 15:42:19",2734,NA,NA,NA,20,NA,NA,NA,NA,NA,1,1,1,NA,2,4,2,NA,NA,NA,NA,NA,10,NA,NA,NA,NA,NA,1,1,2,NA,1,4,2,NA,NA,"16,14,15,10,12,11,4"
"42","5796466d25cb71000128b16c","ma_choice_v2_pilot1",NA,41,0,-1,-1,"Noise Pollution,Climate of Area,Proximity to Cafes/Restaurants,Number of Bedrooms,Size of Home,Central AC,Size of Yard","Low,Moderate,5 min,2,451 sq feet,Yes,Medium","High,Very Bad,5 min,3,927 sq feet,No,None",0,12794,"2021-10-07 15:42:33",2746,2,NA,NA,NA,NA,5,1,NA,NA,NA,NA,3,NA,2,3,NA,NA,451,3,NA,NA,NA,NA,5,3,NA,NA,NA,NA,1,NA,1,1,NA,NA,927,"7,15,6,1,18,14,12"
"43","5796466d25cb71000128b16c","ma_choice_v2_pilot1",NA,42,0,-1,-1,"Hardwood Floors,Proximity to Cafes/Restaurants,Amount of Crime in Neighborhood,Climate of Area,Number of Bedrooms,Size of Home,Freshly Painted Exterior","No,10 min,Low,Bad,2,789 sq feet,Yes","No,20 min,High,Very Good,3,1349 sq feet,No",0,7908,"2021-10-07 15:42:42",2755,2,NA,2,NA,NA,10,NA,NA,NA,NA,NA,NA,NA,NA,2,1,2,789,3,NA,4,NA,NA,20,NA,NA,NA,NA,NA,NA,NA,NA,5,1,1,1349,"16,6,3,15,1,18,17"
"44","5796466d25cb71000128b16c","ma_choice_v2_pilot1",NA,43,0,-1,-1,"Amount of Crime in Neighborhood,Freshly Painted Exterior,Hardwood Floors,Climate of Area,Noise Pollution,Proximity to Cafes/Restaurants,Age of Building","Moderate,No,No,Moderate,Medium,20 min,Old","Very High,Yes,No,Moderate,Low,5 min,Old",0,8069,"2021-10-07 15:42:51",2760,NA,NA,3,NA,NA,20,2,NA,NA,1,NA,NA,NA,NA,3,1,1,NA,NA,NA,5,NA,NA,5,1,NA,NA,1,NA,NA,NA,NA,3,1,2,NA,"3,17,16,15,7,6,10"
"45","5796466d25cb71000128b16c","ma_choice_v2_pilot1",NA,44,0,-1,-1,"Amount of Crime in Neighborhood,Proximity to Cafes/Restaurants,Amount of Natural Light,Size of Garage,Age of Building,Noise Pollution,Size of Home","Low,20 min,A lot of natural light,Medium,Medium,High,1514 sq feet","Low,20 min,A lot of natural light,None,Old,Low,1108 sq feet",1,15185,"2021-10-07 15:43:07",2766,NA,3,2,NA,NA,20,3,NA,4,2,NA,NA,NA,NA,NA,NA,NA,1514,NA,1,2,NA,NA,20,1,NA,4,1,NA,NA,NA,NA,NA,NA,NA,1108,"3,6,9,2,10,7,18"
"46","5796466d25cb71000128b16c","ma_choice_v2_pilot1",NA,45,0,-1,-1,"Amount of Natural Light,Fireplace,Number of Bedrooms,Reputation of Closest School,Proximity to Waterfront/Beaches,Noise Pollution,Amount of Crime in Neighborhood","A little natural light,No,3,Good,10 min,Medium,Very High","Moderate natural light,No,2,Very Good,120 minutes,Low,Moderate",1,16283,"2021-10-07 15:43:24",2781,3,NA,5,NA,10,NA,2,4,2,NA,NA,NA,1,NA,NA,NA,NA,NA,2,NA,3,NA,120,NA,1,5,3,NA,NA,NA,1,NA,NA,NA,NA,NA,"9,13,1,8,5,7,3"
"47","5796466d25cb71000128b16c","ma_choice_v2_pilot1",NA,46,0,-1,-1,"Size of Garage,Number of Bedrooms,Age of Building,Fireplace,Climate of Area,Proximity to Waterfront/Beaches,Reputation of Closest School","Small,3,Old,No,Very Good,120 minutes,Very Good","Large,2,Old,Yes,Very Good,10 min,Good",0,14267,"2021-10-07 15:43:39",2796,3,2,NA,NA,120,NA,NA,5,NA,1,NA,NA,1,NA,5,NA,NA,NA,2,4,NA,NA,10,NA,NA,4,NA,1,NA,NA,2,NA,5,NA,NA,NA,"2,1,10,13,15,5,8"
"48","5796466d25cb71000128b16c","ma_choice_v2_pilot1",NA,47,0,-1,-1,"Freshly Painted Exterior,Size of Yard,Central AC,Size of Home,Fireplace,Noise Pollution,Amount of Crime in Neighborhood","No,Medium,Yes,402 sq feet,Yes,High,Very High","Yes,None,No,1459 sq feet,No,Medium,High",1,9275,"2021-10-07 15:43:50",2801,NA,NA,5,NA,NA,NA,3,NA,NA,NA,NA,3,2,2,NA,NA,1,402,NA,NA,4,NA,NA,NA,2,NA,NA,NA,NA,1,1,1,NA,NA,2,1459,"17,12,14,18,13,7,3"
"49","5796466d25cb71000128b16c","ma_choice_v2_pilot1",NA,48,0,-1,-1,"Size of Home,Climate of Area,Freshly Painted Exterior,Proximity to Parks,Size of Yard,Hardwood Floors,Noise Pollution","1119 sq feet,Bad,Yes,20 min,Large,No,Low","1368 sq feet,Moderate,Yes,10 min,Medium,No,Medium",1,12698,"2021-10-07 15:44:03",2810,NA,NA,NA,20,NA,NA,1,NA,NA,NA,NA,4,NA,NA,2,1,2,1119,NA,NA,NA,10,NA,NA,2,NA,NA,NA,NA,3,NA,NA,3,1,2,1368,"18,15,17,4,12,16,7"
"50","5796466d25cb71000128b16c","ma_choice_v2_pilot1",NA,49,0,-1,-1,"Fireplace,Size of Home,Amount of Crime in Neighborhood,Hardwood Floors,Number of Bedrooms,Reputation of Closest School,Age of Building","Yes,1326 sq feet,Very High,Yes,2,Very Bad,Medium","No,1526 sq feet,Moderate,Yes,2,Moderate,New",1,7732,"2021-10-07 15:44:12",2817,2,NA,5,NA,NA,NA,NA,1,NA,2,NA,NA,2,NA,NA,2,NA,1326,2,NA,3,NA,NA,NA,NA,3,NA,3,NA,NA,1,NA,NA,2,NA,1526,"13,18,3,16,1,8,10"
"51","5796466d25cb71000128b16c","ma_choice_v2_pilot1",NA,50,0,-1,-1,"Size of Yard,Freshly Painted Exterior,Amount of Natural Light,Age of Building,Reputation of Closest School,Proximity to Waterfront/Beaches,Washer/Dryer","Medium,Yes,A lot of natural light,Medium,Moderate,120 minutes,Yes","Medium,No,A lot of natural light,Old,Very Good,30 min,No",1,14596,"2021-10-07 15:44:28",2828,NA,NA,NA,NA,120,NA,NA,3,4,2,2,3,NA,NA,NA,NA,2,NA,NA,NA,NA,NA,30,NA,NA,5,4,1,1,3,NA,NA,NA,NA,1,NA,"12,17,9,10,8,5,11"
"52","5796466d25cb71000128b16c","ma_choice_v2_pilot1",NA,51,0,-1,-1,"Washer/Dryer,Proximity to Cafes/Restaurants,Amount of Natural Light,Noise Pollution,Size of Garage,Central AC,Reputation of Closest School","Yes,10 min,A lot of natural light,Medium,Large,No,Moderate","No,10 min,Moderate natural light,High,Medium,No,Very Bad",0,12259,"2021-10-07 15:44:42",2836,NA,4,NA,NA,NA,10,2,3,4,NA,2,NA,NA,1,NA,NA,NA,NA,NA,3,NA,NA,NA,10,3,1,3,NA,1,NA,NA,1,NA,NA,NA,NA,"11,6,9,7,2,14,8"
"53","5796466d25cb71000128b16c","ma_choice_v2_pilot1",NA,52,0,-1,-1,"Climate of Area,Proximity to Cafes/Restaurants,Size of Yard,Proximity to Waterfront/Beaches,Amount of Natural Light,Age of Building,Central AC","Very Good,20 min,Medium,120 minutes,No natural light,Old,Yes","Moderate,5 min,Small,120 minutes,Moderate natural light,Medium,No",0,8978,"2021-10-07 15:44:51",2843,NA,NA,NA,NA,120,20,NA,NA,1,1,NA,3,NA,2,5,NA,NA,NA,NA,NA,NA,NA,120,5,NA,NA,3,2,NA,2,NA,1,3,NA,NA,NA,"15,6,12,5,9,10,14"
"54","5796466d25cb71000128b16c","ma_choice_v2_pilot1",NA,53,0,-1,-1,"Amount of Natural Light,Size of Garage,Proximity to Cafes/Restaurants,Noise Pollution,Freshly Painted Exterior,Climate of Area,Amount of Crime in Neighborhood","A lot of natural light,Small,20 min,Low,No,Moderate,Moderate","A lot of natural light,Large,5 min,Medium,No,Moderate,Moderate",1,19499,"2021-10-07 15:45:12",2857,NA,2,3,NA,NA,20,1,NA,4,NA,NA,NA,NA,NA,3,NA,1,NA,NA,4,3,NA,NA,5,2,NA,4,NA,NA,NA,NA,NA,3,NA,1,NA,"9,2,6,7,17,15,3"
"55","5796466d25cb71000128b16c","ma_choice_v2_pilot1",NA,54,0,-1,-1,"Size of Garage,Proximity to Cafes/Restaurants,Number of Bedrooms,Proximity to Parks,Size of Yard,Washer/Dryer,Age of Building","Small,5 min,2,10 min,Medium,No,New","Large,20 min,1,10 min,Small,No,Medium",0,10507,"2021-10-07 15:45:23",2864,2,2,NA,10,NA,5,NA,NA,NA,3,1,3,NA,NA,NA,NA,NA,NA,1,4,NA,10,NA,20,NA,NA,NA,2,1,2,NA,NA,NA,NA,NA,NA,"2,6,1,4,12,11,10"
"56","5796466d25cb71000128b16c","ma_choice_v2_pilot1",NA,55,0,-1,-1,"Number of Bedrooms,Size of Yard,Amount of Crime in Neighborhood,Proximity to Cafes/Restaurants,Amount of Natural Light,Proximity to Waterfront/Beaches,Fireplace","1,None,High,10 min,A little natural light,120 minutes,Yes","3,Small,High,5 min,No natural light,90 minutes,Yes",0,14251,"2021-10-07 15:45:38",2876,1,NA,4,NA,120,10,NA,NA,2,NA,NA,1,2,NA,NA,NA,NA,NA,3,NA,4,NA,90,5,NA,NA,1,NA,NA,2,2,NA,NA,NA,NA,NA,"1,12,3,6,9,5,13"
"57","5796466d25cb71000128b16c","ma_choice_v2_pilot1",NA,56,0,-1,-1,"Climate of Area,Noise Pollution,Proximity to Cafes/Restaurants,Size of Home,Amount of Natural Light,Freshly Painted Exterior,Age of Building","Very Good,High,20 min,1779 sq feet,A lot of natural light,No,Medium","Good,Medium,20 min,994 sq feet,No natural light,Yes,Medium",0,15651,"2021-10-07 15:45:55",2890,NA,NA,NA,NA,NA,20,3,NA,4,2,NA,NA,NA,NA,5,NA,1,1779,NA,NA,NA,NA,NA,20,2,NA,1,2,NA,NA,NA,NA,4,NA,2,994,"15,7,6,18,9,17,10"
"58","5796466d25cb71000128b16c","ma_choice_v2_pilot1",NA,57,0,-1,-1,"Hardwood Floors,Size of Garage,Amount of Crime in Neighborhood,Proximity to Waterfront/Beaches,Washer/Dryer,Central AC,Freshly Painted Exterior","No,Large,Moderate,30 min,Yes,No,Yes","No,Small,High,90 minutes,Yes,No,Yes",0,10530,"2021-10-07 15:46:07",2897,NA,4,3,NA,30,NA,NA,NA,NA,NA,2,NA,NA,1,NA,1,2,NA,NA,2,4,NA,90,NA,NA,NA,NA,NA,2,NA,NA,1,NA,1,2,NA,"16,2,3,5,11,14,17"
"59","5796466d25cb71000128b16c","ma_choice_v2_pilot1",NA,58,0,-1,-1,"Age of Building,Proximity to Cafes/Restaurants,Washer/Dryer,Noise Pollution,Number of Bedrooms,Fireplace,Size of Home","Old,5 min,Yes,Medium,3,No,1783 sq feet","Old,5 min,No,Medium,3,No,1044 sq feet",0,13922,"2021-10-07 15:46:22",2908,3,NA,NA,NA,NA,5,2,NA,NA,1,2,NA,1,NA,NA,NA,NA,1783,3,NA,NA,NA,NA,5,2,NA,NA,1,1,NA,1,NA,NA,NA,NA,1044,"10,6,11,7,1,13,18"
"60","5796466d25cb71000128b16c","ma_choice_v2_pilot1",NA,59,0,-1,-1,"Proximity to Parks,Reputation of Closest School,Freshly Painted Exterior,Central AC,Age of Building,Hardwood Floors,Size of Home","5 min,Bad,Yes,No,Medium,Yes,801 sq feet","5 min,Very Good,No,No,New,No,1136 sq feet",1,12162,"2021-10-07 15:46:35",2915,NA,NA,NA,5,NA,NA,NA,2,NA,2,NA,NA,NA,1,NA,2,2,801,NA,NA,NA,5,NA,NA,NA,5,NA,3,NA,NA,NA,1,NA,1,1,1136,"4,8,17,14,10,16,18"
"61","5796466d25cb71000128b16c","ma_choice_v2_pilot1",NA,60,0,-1,-1,"Size of Garage,Proximity to Parks,Noise Pollution,Fireplace,Climate of Area,Hardwood Floors,Size of Home","Medium,20 min,Medium,No,Moderate,No,1535 sq feet","Large,20 min,Low,No,Very Good,Yes,790 sq feet",0,15212,"2021-10-07 15:46:51",2926,NA,3,NA,20,NA,NA,2,NA,NA,NA,NA,NA,1,NA,3,1,NA,1535,NA,4,NA,20,NA,NA,1,NA,NA,NA,NA,NA,1,NA,5,2,NA,790,"2,4,7,13,15,16,18"
"62","5796466d25cb71000128b16c","ma_choice_v2_pilot1",NA,61,0,-1,-1,"Hardwood Floors,Noise Pollution,Size of Yard,Proximity to Parks,Freshly Painted Exterior,Number of Bedrooms,Central AC","Yes,High,Large,10 min,Yes,1,Yes","Yes,Low,None,10 min,No,2,Yes",1,15709,"2021-10-07 15:47:08",2938,1,NA,NA,10,NA,NA,3,NA,NA,NA,NA,4,NA,2,NA,2,2,NA,2,NA,NA,10,NA,NA,1,NA,NA,NA,NA,1,NA,2,NA,2,1,NA,"16,7,12,4,17,1,14"
"63","5796466d25cb71000128b16c","ma_choice_v2_pilot1",NA,62,0,-1,-1,"Climate of Area,Washer/Dryer,Amount of Crime in Neighborhood,Hardwood Floors,Number of Bedrooms,Size of Yard,Proximity to Cafes/Restaurants","Very Bad,No,Low,Yes,2,Small,20 min","Very Good,Yes,Moderate,No,2,Small,5 min",0,11342,"2021-10-07 15:47:20",2946,2,NA,2,NA,NA,20,NA,NA,NA,NA,1,2,NA,NA,1,2,NA,NA,2,NA,3,NA,NA,5,NA,NA,NA,NA,2,2,NA,NA,5,1,NA,NA,"15,11,3,16,1,12,6"
"64","5796466d25cb71000128b16c","ma_choice_v2_pilot1",NA,63,0,-1,-1,"Hardwood Floors,Age of Building,Amount of Natural Light,Reputation of Closest School,Central AC,Number of Bedrooms,Amount of Crime in Neighborhood","Yes,New,A lot of natural light,Very Good,No,2,Low","No,Medium,Moderate natural light,Bad,No,1,Very High",0,8659,"2021-10-07 15:47:30",2953,2,NA,2,NA,NA,NA,NA,5,4,3,NA,NA,NA,1,NA,2,NA,NA,1,NA,5,NA,NA,NA,NA,2,3,2,NA,NA,NA,1,NA,1,NA,NA,"16,10,9,8,14,1,3"
"65","5796466d25cb71000128b16c","ma_choice_v2_pilot1",NA,64,0,-1,-1,"Age of Building,Size of Home,Climate of Area,Central AC,Proximity to Cafes/Restaurants,Hardwood Floors,Proximity to Waterfront/Beaches","Old,1515 sq feet,Very Bad,No,10 min,Yes,10 min","Old,1080 sq feet,Good,Yes,5 min,No,10 min",1,13107,"2021-10-07 15:47:44",2963,NA,NA,NA,NA,10,10,NA,NA,NA,1,NA,NA,NA,1,1,2,NA,1515,NA,NA,NA,NA,10,5,NA,NA,NA,1,NA,NA,NA,2,4,1,NA,1080,"10,18,15,14,6,16,5"
"66","5796466d25cb71000128b16c","ma_choice_v2_pilot1",NA,65,0,-1,-1,"Age of Building,Size of Garage,Amount of Natural Light,Climate of Area,Freshly Painted Exterior,Central AC,Proximity to Waterfront/Beaches","Old,None,No natural light,Very Bad,Yes,Yes,90 minutes","Medium,Medium,A lot of natural light,Very Good,Yes,Yes,60 min",1,8555,"2021-10-07 15:47:53",2971,NA,1,NA,NA,90,NA,NA,NA,1,1,NA,NA,NA,2,1,NA,2,NA,NA,3,NA,NA,60,NA,NA,NA,4,2,NA,NA,NA,2,5,NA,2,NA,"10,2,9,15,17,14,5"
"67","5796466d25cb71000128b16c","ma_choice_v2_pilot1",NA,66,0,-1,-1,"Reputation of Closest School,Washer/Dryer,Hardwood Floors,Size of Garage,Size of Home,Size of Yard,Age of Building","Bad,Yes,Yes,Medium,975 sq feet,Medium,Old","Good,Yes,No,Small,1695 sq feet,Medium,Old",1,12475,"2021-10-07 15:48:07",2979,NA,3,NA,NA,NA,NA,NA,2,NA,1,2,3,NA,NA,NA,2,NA,975,NA,2,NA,NA,NA,NA,NA,4,NA,1,2,3,NA,NA,NA,1,NA,1695,"8,11,16,2,18,12,10"
"68","5796466d25cb71000128b16c","ma_choice_v2_pilot1",NA,67,0,-1,-1,"Amount of Crime in Neighborhood,Size of Garage,Hardwood Floors,Washer/Dryer,Reputation of Closest School,Fireplace,Climate of Area","Very High,Large,No,Yes,Very Bad,No,Very Good","High,Medium,Yes,No,Good,Yes,Very Good",1,15002,"2021-10-07 15:48:23",2988,NA,4,5,NA,NA,NA,NA,1,NA,NA,2,NA,1,NA,5,1,NA,NA,NA,3,4,NA,NA,NA,NA,4,NA,NA,1,NA,2,NA,5,2,NA,NA,"3,2,16,11,8,13,15"
"69","5796466d25cb71000128b16c","ma_choice_v2_pilot1",NA,68,0,-1,-1,"Washer/Dryer,Size of Yard,Amount of Natural Light,Amount of Crime in Neighborhood,Climate of Area,Size of Garage,Noise Pollution","Yes,Medium,Moderate natural light,Very High,Very Bad,Small,High","Yes,None,Moderate natural light,Moderate,Very Bad,Small,Low",1,8698,"2021-10-07 15:48:32",2993,NA,2,5,NA,NA,NA,3,NA,3,NA,2,3,NA,NA,1,NA,NA,NA,NA,2,3,NA,NA,NA,1,NA,3,NA,2,1,NA,NA,1,NA,NA,NA,"11,12,9,3,15,2,7"
"70","5796466d25cb71000128b16c","ma_choice_v2_pilot1",NA,69,0,-1,-1,"Freshly Painted Exterior,Age of Building,Fireplace,Size of Home,Climate of Area,Size of Garage,Proximity to Cafes/Restaurants","No,Medium,Yes,661 sq feet,Very Bad,Medium,5 min","Yes,Old,Yes,1543 sq feet,Good,Small,20 min",1,10020,"2021-10-07 15:48:43",3001,NA,3,NA,NA,NA,5,NA,NA,NA,2,NA,NA,2,NA,1,NA,1,661,NA,2,NA,NA,NA,20,NA,NA,NA,1,NA,NA,2,NA,4,NA,2,1543,"17,10,13,18,15,2,6"
"71","5796466d25cb71000128b16c","ma_choice_v2_pilot1",NA,70,0,-1,-1,"Age of Building,Noise Pollution,Amount of Crime in Neighborhood,Number of Bedrooms,Size of Home,Size of Garage,Proximity to Cafes/Restaurants","Medium,Medium,Very Low,1,992 sq feet,None,20 min","Old,Medium,Very High,2,1619 sq feet,Large,10 min",0,7684,"2021-10-07 15:48:52",3007,1,1,1,NA,NA,20,2,NA,NA,2,NA,NA,NA,NA,NA,NA,NA,992,2,4,5,NA,NA,10,2,NA,NA,1,NA,NA,NA,NA,NA,NA,NA,1619,"10,7,3,1,18,2,6"
"72","5796466d25cb71000128b16c","ma_choice_v2_pilot1",NA,71,0,-1,-1,"Proximity to Waterfront/Beaches,Fireplace,Amount of Natural Light,Central AC,Noise Pollution,Size of Home,Hardwood Floors","60 min,Yes,A little natural light,Yes,Low,1454 sq feet,Yes","90 minutes,No,Moderate natural light,No,Medium,1831 sq feet,Yes",0,31380,"2021-10-07 15:49:24",3031,NA,NA,NA,NA,60,NA,1,NA,2,NA,NA,NA,2,2,NA,2,NA,1454,NA,NA,NA,NA,90,NA,2,NA,3,NA,NA,NA,1,1,NA,2,NA,1831,"5,13,9,14,7,18,16"
"73","5796466d25cb71000128b16c","ma_choice_v2_pilot1",NA,72,0,-1,-1,"Climate of Area,Amount of Natural Light,Size of Garage,Number of Bedrooms,Size of Home,Central AC,Age of Building","Very Bad,No natural light,Medium,3,608 sq feet,No,Old","Good,A little natural light,Medium,3,672 sq feet,No,New",1,27466,"2021-10-07 15:49:53",3046,3,3,NA,NA,NA,NA,NA,NA,1,1,NA,NA,NA,1,1,NA,NA,608,3,3,NA,NA,NA,NA,NA,NA,2,3,NA,NA,NA,1,4,NA,NA,672,"15,9,2,1,18,14,10"
"74","5796466d25cb71000128b16c","ma_choice_v2_pilot1",NA,73,0,-1,-1,"Fireplace,Amount of Natural Light,Amount of Crime in Neighborhood,Proximity to Cafes/Restaurants,Washer/Dryer,Age of Building,Freshly Painted Exterior","No,Moderate natural light,High,10 min,Yes,Old,No","Yes,Moderate natural light,Moderate,20 min,Yes,New,Yes",1,9194,"2021-10-07 15:50:03",3051,NA,NA,4,NA,NA,10,NA,NA,3,1,2,NA,1,NA,NA,NA,1,NA,NA,NA,3,NA,NA,20,NA,NA,3,3,2,NA,2,NA,NA,NA,2,NA,"13,9,3,6,11,10,17"
"75","5796466d25cb71000128b16c","ma_choice_v2_pilot1",NA,74,0,-1,-1,"Climate of Area,Freshly Painted Exterior,Size of Yard,Noise Pollution,Washer/Dryer,Number of Bedrooms,Fireplace","Bad,No,None,High,No,1,No","Very Good,No,Medium,High,No,3,No",1,7898,"2021-10-07 15:50:15",3059,1,NA,NA,NA,NA,NA,3,NA,NA,NA,1,1,1,NA,2,NA,1,NA,3,NA,NA,NA,NA,NA,3,NA,NA,NA,1,3,1,NA,5,NA,1,NA,"15,17,12,7,11,1,13"
"76","580fee689c444f0001cfa03a","ma_choice_v2_pilot1",NA,0,0,-1,-1,"Amount of Natural Light,Reputation of Closest School,Hardwood Floors,Number of Bedrooms,Fireplace,Size of Home,Proximity to Waterfront/Beaches","Moderate natural light,Very Bad,Yes,2,No,1390 sq feet,60 min","A lot of natural light,Bad,No,2,No,557 sq feet,10 min",1,31325,"2021-10-07 15:02:30",1868,2,NA,NA,NA,60,NA,NA,1,3,NA,NA,NA,1,NA,NA,2,NA,1390,2,NA,NA,NA,10,NA,NA,2,4,NA,NA,NA,1,NA,NA,1,NA,557,"9,8,16,1,13,18,5"
"77","580fee689c444f0001cfa03a","ma_choice_v2_pilot1",NA,1,0,-1,-1,"Number of Bedrooms,Washer/Dryer,Size of Garage,Proximity to Waterfront/Beaches,Climate of Area,Freshly Painted Exterior,Proximity to Cafes/Restaurants","2,Yes,Small,90 minutes,Bad,No,5 min","3,No,None,60 min,Very Bad,Yes,5 min",0,33989,"2021-10-07 15:03:05",1875,2,2,NA,NA,90,5,NA,NA,NA,NA,2,NA,NA,NA,2,NA,1,NA,3,1,NA,NA,60,5,NA,NA,NA,NA,1,NA,NA,NA,1,NA,2,NA,"1,11,2,5,15,17,6"
"78","580fee689c444f0001cfa03a","ma_choice_v2_pilot1",NA,2,0,-1,-1,"Washer/Dryer,Size of Home,Size of Yard,Proximity to Cafes/Restaurants,Age of Building,Central AC,Noise Pollution","No,1644 sq feet,None,20 min,New,Yes,Low","No,522 sq feet,Medium,10 min,Medium,No,Medium",1,38649,"2021-10-07 15:03:45",1883,NA,NA,NA,NA,NA,20,1,NA,NA,3,1,1,NA,2,NA,NA,NA,1644,NA,NA,NA,NA,NA,10,2,NA,NA,2,1,3,NA,1,NA,NA,NA,522,"11,18,12,6,10,14,7"
"79","580fee689c444f0001cfa03a","ma_choice_v2_pilot1",NA,3,0,-1,-1,"Central AC,Number of Bedrooms,Amount of Natural Light,Size of Garage,Fireplace,Proximity to Waterfront/Beaches,Reputation of Closest School","No,1,A lot of natural light,Small,Yes,120 minutes,Moderate","No,1,Moderate natural light,Small,No,60 min,Good",1,19420,"2021-10-07 15:04:05",1887,1,2,NA,NA,120,NA,NA,3,4,NA,NA,NA,2,1,NA,NA,NA,NA,1,2,NA,NA,60,NA,NA,4,3,NA,NA,NA,1,1,NA,NA,NA,NA,"14,1,9,2,13,5,8"
"80","580fee689c444f0001cfa03a","ma_choice_v2_pilot1",NA,4,0,-1,-1,"Fireplace,Amount of Natural Light,Proximity to Cafes/Restaurants,Number of Bedrooms,Washer/Dryer,Noise Pollution,Climate of Area","Yes,No natural light,10 min,1,No,Low,Very Bad","Yes,Moderate natural light,5 min,1,Yes,High,Good",1,47427,"2021-10-07 15:04:54",1898,1,NA,NA,NA,NA,10,1,NA,1,NA,1,NA,2,NA,1,NA,NA,NA,1,NA,NA,NA,NA,5,3,NA,3,NA,2,NA,2,NA,4,NA,NA,NA,"13,9,6,1,11,7,15"
"81","580fee689c444f0001cfa03a","ma_choice_v2_pilot1",NA,5,0,-1,-1,"Age of Building,Proximity to Cafes/Restaurants,Size of Garage,Fireplace,Washer/Dryer,Hardwood Floors,Climate of Area","Medium,20 min,None,Yes,No,No,Very Bad","Medium,20 min,None,Yes,No,No,Bad",1,17513,"2021-10-07 15:05:12",1902,NA,1,NA,NA,NA,20,NA,NA,NA,2,1,NA,2,NA,1,1,NA,NA,NA,1,NA,NA,NA,20,NA,NA,NA,2,1,NA,2,NA,2,1,NA,NA,"10,6,2,13,11,16,15"
"82","580fee689c444f0001cfa03a","ma_choice_v2_pilot1",NA,6,0,-1,-1,"Central AC,Proximity to Waterfront/Beaches,Size of Garage,Hardwood Floors,Proximity to Cafes/Restaurants,Amount of Crime in Neighborhood,Size of Yard","No,60 min,Small,No,20 min,Very High,Large","Yes,10 min,Large,Yes,20 min,Very High,Small",1,27886,"2021-10-07 15:05:41",1907,NA,2,5,NA,60,20,NA,NA,NA,NA,NA,4,NA,1,NA,1,NA,NA,NA,4,5,NA,10,20,NA,NA,NA,NA,NA,2,NA,2,NA,2,NA,NA,"14,5,2,16,6,3,12"
"83","580fee689c444f0001cfa03a","ma_choice_v2_pilot1",NA,7,0,-1,-1,"Climate of Area,Washer/Dryer,Fireplace,Size of Garage,Age of Building,Proximity to Waterfront/Beaches,Amount of Crime in Neighborhood","Good,No,Yes,Medium,New,30 min,Low","Very Bad,Yes,No,Medium,Medium,120 minutes,Low",0,23158,"2021-10-07 15:06:05",1912,NA,3,2,NA,30,NA,NA,NA,NA,3,1,NA,2,NA,4,NA,NA,NA,NA,3,2,NA,120,NA,NA,NA,NA,2,2,NA,1,NA,1,NA,NA,NA,"15,11,13,2,10,5,3"
"84","580fee689c444f0001cfa03a","ma_choice_v2_pilot1",NA,8,0,-1,-1,"Hardwood Floors,Washer/Dryer,Noise Pollution,Amount of Natural Light,Fireplace,Amount of Crime in Neighborhood,Number of Bedrooms","Yes,No,Medium,A lot of natural light,No,Very High,1","No,No,Low,No natural light,No,Moderate,2",1,25426,"2021-10-07 15:06:32",1917,1,NA,5,NA,NA,NA,2,NA,4,NA,1,NA,1,NA,NA,2,NA,NA,2,NA,3,NA,NA,NA,1,NA,1,NA,1,NA,1,NA,NA,1,NA,NA,"16,11,7,9,13,3,1"
"85","580fee689c444f0001cfa03a","ma_choice_v2_pilot1",NA,9,0,-1,-1,"Hardwood Floors,Size of Home,Size of Garage,Washer/Dryer,Proximity to Cafes/Restaurants,Age of Building,Amount of Natural Light","Yes,1263 sq feet,Small,Yes,5 min,New,A lot of natural light","No,1008 sq feet,None,No,5 min,Medium,No natural light",0,17692,"2021-10-07 15:06:51",1921,NA,2,NA,NA,NA,5,NA,NA,4,3,2,NA,NA,NA,NA,2,NA,1263,NA,1,NA,NA,NA,5,NA,NA,1,2,1,NA,NA,NA,NA,1,NA,1008,"16,18,2,11,6,10,9"
"86","580fee689c444f0001cfa03a","ma_choice_v2_pilot1",NA,10,0,-1,-1,"Age of Building,Proximity to Cafes/Restaurants,Number of Bedrooms,Amount of Natural Light,Amount of Crime in Neighborhood,Reputation of Closest School,Size of Garage","Medium,5 min,3,No natural light,Low,Good,Medium","Medium,5 min,2,A lot of natural light,High,Bad,Large",0,14904,"2021-10-07 15:07:07",1925,3,3,2,NA,NA,5,NA,4,1,2,NA,NA,NA,NA,NA,NA,NA,NA,2,4,4,NA,NA,5,NA,2,4,2,NA,NA,NA,NA,NA,NA,NA,NA,"10,6,1,9,3,8,2"
"87","580fee689c444f0001cfa03a","ma_choice_v2_pilot1",NA,11,0,-1,-1,"Freshly Painted Exterior,Climate of Area,Washer/Dryer,Proximity to Waterfront/Beaches,Noise Pollution,Proximity to Cafes/Restaurants,Central AC","Yes,Bad,No,120 minutes,High,20 min,Yes","No,Very Bad,Yes,90 minutes,High,10 min,Yes",0,21866,"2021-10-07 15:07:29",1931,NA,NA,NA,NA,120,20,3,NA,NA,NA,1,NA,NA,2,2,NA,2,NA,NA,NA,NA,NA,90,10,3,NA,NA,NA,2,NA,NA,2,1,NA,1,NA,"17,15,11,5,7,6,14"
"88","580fee689c444f0001cfa03a","ma_choice_v2_pilot1",NA,12,0,-1,-1,"Amount of Crime in Neighborhood,Central AC,Number of Bedrooms,Amount of Natural Light,Proximity to Waterfront/Beaches,Size of Yard,Size of Garage","Moderate,Yes,1,A lot of natural light,120 minutes,None,Medium","Moderate,Yes,3,Moderate natural light,10 min,Large,Small",1,23810,"2021-10-07 15:07:54",1937,1,3,3,NA,120,NA,NA,NA,4,NA,NA,1,NA,2,NA,NA,NA,NA,3,2,3,NA,10,NA,NA,NA,3,NA,NA,4,NA,2,NA,NA,NA,NA,"3,14,1,9,5,12,2"
"89","580fee689c444f0001cfa03a","ma_choice_v2_pilot1",NA,13,0,-1,-1,"Hardwood Floors,Central AC,Age of Building,Size of Home,Proximity to Waterfront/Beaches,Number of Bedrooms,Amount of Natural Light","Yes,Yes,New,519 sq feet,30 min,3,Moderate natural light","No,Yes,New,1655 sq feet,90 minutes,2,A lot of natural light",1,36022,"2021-10-07 15:08:31",1949,3,NA,NA,NA,30,NA,NA,NA,3,3,NA,NA,NA,2,NA,2,NA,519,2,NA,NA,NA,90,NA,NA,NA,4,3,NA,NA,NA,2,NA,1,NA,1655,"16,14,10,18,5,1,9"
"90","580fee689c444f0001cfa03a","ma_choice_v2_pilot1",NA,14,0,-1,-1,"Proximity to Cafes/Restaurants,Size of Yard,Size of Garage,Proximity to Parks,Noise Pollution,Freshly Painted Exterior,Size of Home","20 min,Medium,Medium,5 min,Low,No,1045 sq feet","20 min,None,None,5 min,High,No,1516 sq feet",0,15150,"2021-10-07 15:08:47",1953,NA,3,NA,5,NA,20,1,NA,NA,NA,NA,3,NA,NA,NA,NA,1,1045,NA,1,NA,5,NA,20,3,NA,NA,NA,NA,1,NA,NA,NA,NA,1,1516,"6,12,2,4,7,17,18"
"91","580fee689c444f0001cfa03a","ma_choice_v2_pilot1",NA,15,0,-1,-1,"Amount of Natural Light,Size of Garage,Reputation of Closest School,Central AC,Size of Home,Proximity to Parks,Age of Building","A little natural light,None,Bad,No,1135 sq feet,5 min,Old","A little natural light,None,Good,Yes,1078 sq feet,10 min,New",1,16514,"2021-10-07 15:09:05",1958,NA,1,NA,5,NA,NA,NA,2,2,1,NA,NA,NA,1,NA,NA,NA,1135,NA,1,NA,10,NA,NA,NA,4,2,3,NA,NA,NA,2,NA,NA,NA,1078,"9,2,8,14,18,4,10"
"92","580fee689c444f0001cfa03a","ma_choice_v2_pilot1",NA,16,0,-1,-1,"Proximity to Parks,Size of Home,Size of Garage,Amount of Natural Light,Central AC,Age of Building,Freshly Painted Exterior","10 min,1902 sq feet,Medium,Moderate natural light,Yes,Old,No","20 min,606 sq feet,Small,A lot of natural light,Yes,New,No",0,27212,"2021-10-07 15:09:33",1966,NA,3,NA,10,NA,NA,NA,NA,3,1,NA,NA,NA,2,NA,NA,1,1902,NA,2,NA,20,NA,NA,NA,NA,4,3,NA,NA,NA,2,NA,NA,1,606,"4,18,2,9,14,10,17"
"93","580fee689c444f0001cfa03a","ma_choice_v2_pilot1",NA,17,0,-1,-1,"Proximity to Cafes/Restaurants,Amount of Natural Light,Amount of Crime in Neighborhood,Size of Garage,Proximity to Waterfront/Beaches,Climate of Area,Number of Bedrooms","5 min,Moderate natural light,Low,Large,60 min,Bad,1","5 min,Moderate natural light,High,None,10 min,Good,2",0,27204,"2021-10-07 15:10:01",1972,1,4,2,NA,60,5,NA,NA,3,NA,NA,NA,NA,NA,2,NA,NA,NA,2,1,4,NA,10,5,NA,NA,3,NA,NA,NA,NA,NA,4,NA,NA,NA,"6,9,3,2,5,15,1"
"94","580fee689c444f0001cfa03a","ma_choice_v2_pilot1",NA,18,0,-1,-1,"Size of Home,Freshly Painted Exterior,Hardwood Floors,Reputation of Closest School,Size of Garage,Proximity to Cafes/Restaurants,Amount of Natural Light","575 sq feet,Yes,Yes,Bad,Medium,20 min,A little natural light","645 sq feet,Yes,Yes,Very Bad,Small,10 min,Moderate natural light",1,33539,"2021-10-07 15:10:36",1977,NA,3,NA,NA,NA,20,NA,2,2,NA,NA,NA,NA,NA,NA,2,2,575,NA,2,NA,NA,NA,10,NA,1,3,NA,NA,NA,NA,NA,NA,2,2,645,"18,17,16,8,2,6,9"
"95","580fee689c444f0001cfa03a","ma_choice_v2_pilot1",NA,19,0,-1,-1,"Reputation of Closest School,Freshly Painted Exterior,Size of Garage,Proximity to Parks,Size of Home,Proximity to Waterfront/Beaches,Size of Yard","Very Bad,Yes,Large,10 min,433 sq feet,60 min,Small","Very Good,Yes,Large,10 min,1915 sq feet,120 minutes,Large",1,31741,"2021-10-07 15:11:09",1982,NA,4,NA,10,60,NA,NA,1,NA,NA,NA,2,NA,NA,NA,NA,2,433,NA,4,NA,10,120,NA,NA,5,NA,NA,NA,4,NA,NA,NA,NA,2,1915,"8,17,2,4,18,5,12"
"96","580fee689c444f0001cfa03a","ma_choice_v2_pilot1",NA,20,0,-1,-1,"Size of Yard,Size of Home,Noise Pollution,Proximity to Cafes/Restaurants,Washer/Dryer,Fireplace,Central AC","Large,899 sq feet,Medium,20 min,Yes,No,Yes","Medium,1120 sq feet,Medium,20 min,No,No,No",0,38979,"2021-10-07 15:11:49",1993,NA,NA,NA,NA,NA,20,2,NA,NA,NA,2,4,1,2,NA,NA,NA,899,NA,NA,NA,NA,NA,20,2,NA,NA,NA,1,3,1,1,NA,NA,NA,1120,"12,18,7,6,11,13,14"
"97","580fee689c444f0001cfa03a","ma_choice_v2_pilot1",NA,21,0,-1,-1,"Proximity to Waterfront/Beaches,Amount of Crime in Neighborhood,Size of Yard,Hardwood Floors,Reputation of Closest School,Proximity to Parks,Size of Home","10 min,High,None,No,Bad,10 min,988 sq feet","30 min,Low,Small,Yes,Good,20 min,596 sq feet",1,13381,"2021-10-07 15:12:03",1996,NA,NA,4,10,10,NA,NA,2,NA,NA,NA,1,NA,NA,NA,1,NA,988,NA,NA,2,20,30,NA,NA,4,NA,NA,NA,2,NA,NA,NA,2,NA,596,"5,3,12,16,8,4,18"
"98","580fee689c444f0001cfa03a","ma_choice_v2_pilot1",NA,22,0,-1,-1,"Washer/Dryer,Proximity to Cafes/Restaurants,Noise Pollution,Amount of Crime in Neighborhood,Size of Home,Reputation of Closest School,Age of Building","Yes,20 min,High,Very High,1877 sq feet,Good,Old","No,5 min,Medium,Very Low,1775 sq feet,Bad,Medium",1,14342,"2021-10-07 15:12:18",2001,NA,NA,5,NA,NA,20,3,4,NA,1,2,NA,NA,NA,NA,NA,NA,1877,NA,NA,1,NA,NA,5,2,2,NA,2,1,NA,NA,NA,NA,NA,NA,1775,"11,6,7,3,18,8,10"
"99","580fee689c444f0001cfa03a","ma_choice_v2_pilot1",NA,23,0,-1,-1,"Washer/Dryer,Reputation of Closest School,Hardwood Floors,Size of Home,Size of Garage,Age of Building,Amount of Natural Light","No,Moderate,No,1149 sq feet,Small,New,A lot of natural light","No,Very Bad,Yes,1143 sq feet,Large,Old,Moderate natural light",0,17886,"2021-10-07 15:12:37",2007,NA,2,NA,NA,NA,NA,NA,3,4,3,1,NA,NA,NA,NA,1,NA,1149,NA,4,NA,NA,NA,NA,NA,1,3,1,1,NA,NA,NA,NA,2,NA,1143,"11,8,16,18,2,10,9"
"100","580fee689c444f0001cfa03a","ma_choice_v2_pilot1",NA,24,0,-1,-1,"Freshly Painted Exterior,Size of Yard,Amount of Crime in Neighborhood,Number of Bedrooms,Proximity to Parks,Noise Pollution,Fireplace","Yes,None,Moderate,2,20 min,High,Yes","No,Large,Very Low,2,20 min,Medium,Yes",1,15292,"2021-10-07 15:12:54",2012,2,NA,3,20,NA,NA,3,NA,NA,NA,NA,1,2,NA,NA,NA,2,NA,2,NA,1,20,NA,NA,2,NA,NA,NA,NA,4,2,NA,NA,NA,1,NA,"17,12,3,1,4,7,13"
"101","580fee689c444f0001cfa03a","ma_choice_v2_pilot1",NA,25,0,-1,-1,"Fireplace,Proximity to Waterfront/Beaches,Proximity to Cafes/Restaurants,Climate of Area,Noise Pollution,Size of Garage,Hardwood Floors","Yes,30 min,20 min,Moderate,Low,Medium,Yes","Yes,10 min,5 min,Very Good,High,Small,No",0,26546,"2021-10-07 15:13:21",2020,NA,3,NA,NA,30,20,1,NA,NA,NA,NA,NA,2,NA,3,2,NA,NA,NA,2,NA,NA,10,5,3,NA,NA,NA,NA,NA,2,NA,5,1,NA,NA,"13,5,6,15,7,2,16"
"102","580fee689c444f0001cfa03a","ma_choice_v2_pilot1",NA,26,0,-1,-1,"Hardwood Floors,Climate of Area,Proximity to Parks,Noise Pollution,Size of Home,Fireplace,Reputation of Closest School","No,Bad,10 min,High,969 sq feet,No,Very Good","No,Very Bad,20 min,Medium,947 sq feet,No,Very Good",0,27484,"2021-10-07 15:13:50",2029,NA,NA,NA,10,NA,NA,3,5,NA,NA,NA,NA,1,NA,2,1,NA,969,NA,NA,NA,20,NA,NA,2,5,NA,NA,NA,NA,1,NA,1,1,NA,947,"16,15,4,7,18,13,8"
"103","580fee689c444f0001cfa03a","ma_choice_v2_pilot1",NA,27,0,-1,-1,"Amount of Natural Light,Size of Garage,Size of Yard,Age of Building,Proximity to Cafes/Restaurants,Hardwood Floors,Reputation of Closest School","A lot of natural light,Small,Small,New,5 min,No,Bad","A lot of natural light,Medium,Medium,New,20 min,No,Good",0,45932,"2021-10-07 15:14:37",2043,NA,2,NA,NA,NA,5,NA,2,4,3,NA,2,NA,NA,NA,1,NA,NA,NA,3,NA,NA,NA,20,NA,4,4,3,NA,3,NA,NA,NA,1,NA,NA,"9,2,12,10,6,16,8"
"104","580fee689c444f0001cfa03a","ma_choice_v2_pilot1",NA,28,0,-1,-1,"Size of Yard,Size of Home,Freshly Painted Exterior,Washer/Dryer,Age of Building,Proximity to Parks,Fireplace","Small,1472 sq feet,No,Yes,Old,20 min,No","None,430 sq feet,No,Yes,New,20 min,Yes",0,12379,"2021-10-07 15:14:50",2047,NA,NA,NA,20,NA,NA,NA,NA,NA,1,2,2,1,NA,NA,NA,1,1472,NA,NA,NA,20,NA,NA,NA,NA,NA,3,2,1,2,NA,NA,NA,1,430,"12,18,17,11,10,4,13"
"105","580fee689c444f0001cfa03a","ma_choice_v2_pilot1",NA,29,0,-1,-1,"Age of Building,Size of Yard,Washer/Dryer,Fireplace,Hardwood Floors,Proximity to Parks,Climate of Area","Old,Medium,Yes,Yes,Yes,10 min,Very Bad","New,Large,Yes,No,No,10 min,Very Good",1,13445,"2021-10-07 15:15:04",2053,NA,NA,NA,10,NA,NA,NA,NA,NA,1,2,3,2,NA,1,2,NA,NA,NA,NA,NA,10,NA,NA,NA,NA,NA,3,2,4,1,NA,5,1,NA,NA,"10,12,11,13,16,4,15"
"106","580fee689c444f0001cfa03a","ma_choice_v2_pilot1",NA,30,0,-1,-1,"Size of Yard,Age of Building,Washer/Dryer,Reputation of Closest School,Size of Home,Proximity to Cafes/Restaurants,Amount of Natural Light","Large,Old,Yes,Very Bad,1852 sq feet,10 min,No natural light","Medium,Old,Yes,Bad,1805 sq feet,10 min,A little natural light",1,19960,"2021-10-07 15:15:25",2059,NA,NA,NA,NA,NA,10,NA,1,1,1,2,4,NA,NA,NA,NA,NA,1852,NA,NA,NA,NA,NA,10,NA,2,2,1,2,3,NA,NA,NA,NA,NA,1805,"12,10,11,8,18,6,9"
"107","580fee689c444f0001cfa03a","ma_choice_v2_pilot1",NA,31,0,-1,-1,"Noise Pollution,Freshly Painted Exterior,Fireplace,Age of Building,Central AC,Amount of Natural Light,Washer/Dryer","High,Yes,Yes,Old,Yes,A little natural light,No","Low,No,No,New,No,Moderate natural light,Yes",1,18856,"2021-10-07 15:15:45",2066,NA,NA,NA,NA,NA,NA,3,NA,2,1,1,NA,2,2,NA,NA,2,NA,NA,NA,NA,NA,NA,NA,1,NA,3,3,2,NA,1,1,NA,NA,1,NA,"7,17,13,10,14,9,11"
"108","580fee689c444f0001cfa03a","ma_choice_v2_pilot1",NA,32,0,-1,-1,"Proximity to Waterfront/Beaches,Proximity to Cafes/Restaurants,Noise Pollution,Age of Building,Hardwood Floors,Proximity to Parks,Central AC","120 minutes,20 min,High,Old,No,20 min,Yes","10 min,10 min,High,Medium,No,10 min,No",0,52400,"2021-10-07 15:16:39",2079,NA,NA,NA,20,120,20,3,NA,NA,1,NA,NA,NA,2,NA,1,NA,NA,NA,NA,NA,10,10,10,3,NA,NA,2,NA,NA,NA,1,NA,1,NA,NA,"5,6,7,10,16,4,14"
"109","580fee689c444f0001cfa03a","ma_choice_v2_pilot1",NA,33,0,-1,-1,"Fireplace,Amount of Crime in Neighborhood,Hardwood Floors,Climate of Area,Freshly Painted Exterior,Size of Home,Proximity to Parks","No,Moderate,Yes,Bad,Yes,1002 sq feet,10 min","No,Moderate,No,Moderate,No,681 sq feet,20 min",1,14636,"2021-10-07 15:16:54",2087,NA,NA,3,10,NA,NA,NA,NA,NA,NA,NA,NA,1,NA,2,2,2,1002,NA,NA,3,20,NA,NA,NA,NA,NA,NA,NA,NA,1,NA,3,1,1,681,"13,3,16,15,17,18,4"
"110","580fee689c444f0001cfa03a","ma_choice_v2_pilot1",NA,34,0,-1,-1,"Size of Home,Fireplace,Proximity to Waterfront/Beaches,Number of Bedrooms,Size of Garage,Noise Pollution,Age of Building","1511 sq feet,No,60 min,3,None,Medium,Old","1284 sq feet,No,10 min,2,Medium,Medium,Medium",1,25546,"2021-10-07 15:17:21",2094,3,1,NA,NA,60,NA,2,NA,NA,1,NA,NA,1,NA,NA,NA,NA,1511,2,3,NA,NA,10,NA,2,NA,NA,2,NA,NA,1,NA,NA,NA,NA,1284,"18,13,5,1,2,7,10"
"111","580fee689c444f0001cfa03a","ma_choice_v2_pilot1",NA,35,0,-1,-1,"Noise Pollution,Size of Home,Size of Garage,Age of Building,Fireplace,Freshly Painted Exterior,Amount of Crime in Neighborhood","Low,433 sq feet,None,Medium,No,Yes,Very High","Low,1311 sq feet,Small,New,Yes,No,Low",1,15666,"2021-10-07 15:17:38",2101,NA,1,5,NA,NA,NA,1,NA,NA,2,NA,NA,1,NA,NA,NA,2,433,NA,2,2,NA,NA,NA,1,NA,NA,3,NA,NA,2,NA,NA,NA,1,1311,"7,18,2,10,13,17,3"
"112","580fee689c444f0001cfa03a","ma_choice_v2_pilot1",NA,36,0,-1,-1,"Size of Yard,Age of Building,Hardwood Floors,Amount of Crime in Neighborhood,Proximity to Cafes/Restaurants,Noise Pollution,Proximity to Parks","Small,Medium,Yes,Very Low,5 min,High,10 min","Medium,New,No,High,5 min,Medium,20 min",0,32595,"2021-10-07 15:18:11",2110,NA,NA,1,10,NA,5,3,NA,NA,2,NA,2,NA,NA,NA,2,NA,NA,NA,NA,4,20,NA,5,2,NA,NA,3,NA,3,NA,NA,NA,1,NA,NA,"12,10,16,3,6,7,4"
"113","580fee689c444f0001cfa03a","ma_choice_v2_pilot1",NA,37,0,-1,-1,"Central AC,Reputation of Closest School,Washer/Dryer,Proximity to Waterfront/Beaches,Amount of Natural Light,Hardwood Floors,Size of Yard","Yes,Good,Yes,120 minutes,A lot of natural light,Yes,Large","No,Very Good,No,90 minutes,No natural light,Yes,Large",0,16612,"2021-10-07 15:18:29",2113,NA,NA,NA,NA,120,NA,NA,4,4,NA,2,4,NA,2,NA,2,NA,NA,NA,NA,NA,NA,90,NA,NA,5,1,NA,1,4,NA,1,NA,2,NA,NA,"14,8,11,5,9,16,12"
"114","580fee689c444f0001cfa03a","ma_choice_v2_pilot1",NA,38,0,-1,-1,"Freshly Painted Exterior,Proximity to Waterfront/Beaches,Hardwood Floors,Reputation of Closest School,Noise Pollution,Size of Yard,Central AC","No,60 min,No,Good,Low,Large,Yes","No,60 min,Yes,Very Bad,Low,None,Yes",0,15055,"2021-10-07 15:18:45",2117,NA,NA,NA,NA,60,NA,1,4,NA,NA,NA,4,NA,2,NA,1,1,NA,NA,NA,NA,NA,60,NA,1,1,NA,NA,NA,1,NA,2,NA,2,1,NA,"17,5,16,8,7,12,14"
"115","580fee689c444f0001cfa03a","ma_choice_v2_pilot1",NA,39,0,-1,-1,"Noise Pollution,Hardwood Floors,Amount of Natural Light,Number of Bedrooms,Proximity to Parks,Central AC,Freshly Painted Exterior","Medium,No,A little natural light,3,10 min,Yes,No","High,Yes,A little natural light,3,20 min,No,No",0,14358,"2021-10-07 15:19:03",2120,3,NA,NA,10,NA,NA,2,NA,2,NA,NA,NA,NA,2,NA,1,1,NA,3,NA,NA,20,NA,NA,3,NA,2,NA,NA,NA,NA,1,NA,2,1,NA,"7,16,9,1,4,14,17"
"116","580fee689c444f0001cfa03a","ma_choice_v2_pilot1",NA,40,0,-1,-1,"Proximity to Waterfront/Beaches,Size of Garage,Proximity to Cafes/Restaurants,Size of Yard,Washer/Dryer,Fireplace,Size of Home","10 min,Large,5 min,None,Yes,No,1420 sq feet","30 min,Small,10 min,Large,No,Yes,974 sq feet",1,15815,"2021-10-07 15:19:17",2125,NA,4,NA,NA,10,5,NA,NA,NA,NA,2,1,1,NA,NA,NA,NA,1420,NA,2,NA,NA,30,10,NA,NA,NA,NA,1,4,2,NA,NA,NA,NA,974,"5,2,6,12,11,13,18"
"117","580fee689c444f0001cfa03a","ma_choice_v2_pilot1",NA,41,0,-1,-1,"Proximity to Parks,Central AC,Size of Home,Fireplace,Amount of Natural Light,Washer/Dryer,Proximity to Waterfront/Beaches","10 min,No,936 sq feet,Yes,Moderate natural light,No,90 minutes","5 min,No,512 sq feet,Yes,A lot of natural light,No,120 minutes",1,31732,"2021-10-07 15:19:50",2131,NA,NA,NA,10,90,NA,NA,NA,3,NA,1,NA,2,1,NA,NA,NA,936,NA,NA,NA,5,120,NA,NA,NA,4,NA,1,NA,2,1,NA,NA,NA,512,"4,14,18,13,9,11,5"
"118","580fee689c444f0001cfa03a","ma_choice_v2_pilot1",NA,42,0,-1,-1,"Freshly Painted Exterior,Washer/Dryer,Amount of Natural Light,Proximity to Cafes/Restaurants,Size of Garage,Reputation of Closest School,Fireplace","No,No,Moderate natural light,5 min,Medium,Moderate,Yes","Yes,No,A lot of natural light,20 min,None,Bad,Yes",0,23306,"2021-10-07 15:20:14",2136,NA,3,NA,NA,NA,5,NA,3,3,NA,1,NA,2,NA,NA,NA,1,NA,NA,1,NA,NA,NA,20,NA,2,4,NA,1,NA,2,NA,NA,NA,2,NA,"17,11,9,6,2,8,13"
"119","580fee689c444f0001cfa03a","ma_choice_v2_pilot1",NA,43,0,-1,-1,"Proximity to Parks,Proximity to Cafes/Restaurants,Size of Yard,Hardwood Floors,Amount of Natural Light,Fireplace,Number of Bedrooms","10 min,10 min,Small,Yes,No natural light,Yes,1","5 min,5 min,Small,Yes,Moderate natural light,No,3",1,15429,"2021-10-07 15:20:31",2140,1,NA,NA,10,NA,10,NA,NA,1,NA,NA,2,2,NA,NA,2,NA,NA,3,NA,NA,5,NA,5,NA,NA,3,NA,NA,2,1,NA,NA,2,NA,NA,"4,6,12,16,9,13,1"
"120","580fee689c444f0001cfa03a","ma_choice_v2_pilot1",NA,44,0,-1,-1,"Amount of Natural Light,Number of Bedrooms,Size of Garage,Amount of Crime in Neighborhood,Climate of Area,Hardwood Floors,Proximity to Parks","A little natural light,1,Medium,Very Low,Bad,Yes,10 min","A little natural light,2,Small,Very High,Moderate,Yes,5 min",0,10462,"2021-10-07 15:20:42",2143,1,3,1,10,NA,NA,NA,NA,2,NA,NA,NA,NA,NA,2,2,NA,NA,2,2,5,5,NA,NA,NA,NA,2,NA,NA,NA,NA,NA,3,2,NA,NA,"9,1,2,3,15,16,4"
"121","580fee689c444f0001cfa03a","ma_choice_v2_pilot1",NA,45,0,-1,-1,"Proximity to Parks,Amount of Natural Light,Size of Yard,Proximity to Waterfront/Beaches,Proximity to Cafes/Restaurants,Amount of Crime in Neighborhood,Size of Home","5 min,No natural light,Small,60 min,20 min,High,989 sq feet","20 min,Moderate natural light,Large,10 min,20 min,Low,1256 sq feet",1,15419,"2021-10-07 15:20:58",2146,NA,NA,4,5,60,20,NA,NA,1,NA,NA,2,NA,NA,NA,NA,NA,989,NA,NA,2,20,10,20,NA,NA,3,NA,NA,4,NA,NA,NA,NA,NA,1256,"4,9,12,5,6,3,18"
"122","580fee689c444f0001cfa03a","ma_choice_v2_pilot1",NA,46,0,-1,-1,"Proximity to Waterfront/Beaches,Amount of Natural Light,Freshly Painted Exterior,Number of Bedrooms,Proximity to Cafes/Restaurants,Washer/Dryer,Climate of Area","60 min,A little natural light,Yes,1,20 min,Yes,Very Good","120 minutes,A little natural light,No,2,5 min,Yes,Good",1,19193,"2021-10-07 15:21:19",2150,1,NA,NA,NA,60,20,NA,NA,2,NA,2,NA,NA,NA,5,NA,2,NA,2,NA,NA,NA,120,5,NA,NA,2,NA,2,NA,NA,NA,4,NA,1,NA,"5,9,17,1,6,11,15"
"123","580fee689c444f0001cfa03a","ma_choice_v2_pilot1",NA,47,0,-1,-1,"Hardwood Floors,Amount of Natural Light,Amount of Crime in Neighborhood,Size of Home,Reputation of Closest School,Climate of Area,Washer/Dryer","Yes,A little natural light,Moderate,1853 sq feet,Good,Good,Yes","No,No natural light,Moderate,1276 sq feet,Very Bad,Moderate,Yes",0,15616,"2021-10-07 15:21:35",2156,NA,NA,3,NA,NA,NA,NA,4,2,NA,2,NA,NA,NA,4,2,NA,1853,NA,NA,3,NA,NA,NA,NA,1,1,NA,2,NA,NA,NA,3,1,NA,1276,"16,9,3,18,8,15,11"
"124","580fee689c444f0001cfa03a","ma_choice_v2_pilot1",NA,48,0,-1,-1,"Freshly Painted Exterior,Amount of Natural Light,Age of Building,Proximity to Waterfront/Beaches,Size of Garage,Reputation of Closest School,Hardwood Floors","No,A lot of natural light,Old,120 minutes,None,Good,No","Yes,No natural light,Old,120 minutes,Large,Very Good,Yes",0,17610,"2021-10-07 15:21:54",2160,NA,1,NA,NA,120,NA,NA,4,4,1,NA,NA,NA,NA,NA,1,1,NA,NA,4,NA,NA,120,NA,NA,5,1,1,NA,NA,NA,NA,NA,2,2,NA,"17,9,10,5,2,8,16"
"125","580fee689c444f0001cfa03a","ma_choice_v2_pilot1",NA,49,0,-1,-1,"Freshly Painted Exterior,Amount of Crime in Neighborhood,Number of Bedrooms,Noise Pollution,Central AC,Fireplace,Reputation of Closest School","Yes,Moderate,2,Low,No,No,Good","No,High,3,High,Yes,No,Bad",0,20550,"2021-10-07 15:22:15",2164,2,NA,3,NA,NA,NA,1,4,NA,NA,NA,NA,1,1,NA,NA,2,NA,3,NA,4,NA,NA,NA,3,2,NA,NA,NA,NA,1,2,NA,NA,1,NA,"17,3,1,7,14,13,8"
"126","580fee689c444f0001cfa03a","ma_choice_v2_pilot1",NA,50,0,-1,-1,"Size of Yard,Number of Bedrooms,Freshly Painted Exterior,Amount of Natural Light,Hardwood Floors,Fireplace,Proximity to Waterfront/Beaches","Small,1,No,No natural light,No,No,60 min","None,3,Yes,No natural light,No,Yes,90 minutes",0,18999,"2021-10-07 15:22:35",2170,1,NA,NA,NA,60,NA,NA,NA,1,NA,NA,2,1,NA,NA,1,1,NA,3,NA,NA,NA,90,NA,NA,NA,1,NA,NA,1,2,NA,NA,1,2,NA,"12,1,17,9,16,13,5"
"127","580fee689c444f0001cfa03a","ma_choice_v2_pilot1",NA,51,0,-1,-1,"Noise Pollution,Size of Garage,Washer/Dryer,Amount of Natural Light,Fireplace,Proximity to Waterfront/Beaches,Age of Building","Low,Large,No,A lot of natural light,Yes,30 min,New","Medium,Large,Yes,A lot of natural light,No,10 min,Medium",0,15862,"2021-10-07 15:22:52",2173,NA,4,NA,NA,30,NA,1,NA,4,3,1,NA,2,NA,NA,NA,NA,NA,NA,4,NA,NA,10,NA,2,NA,4,2,2,NA,1,NA,NA,NA,NA,NA,"7,2,11,9,13,5,10"
"128","580fee689c444f0001cfa03a","ma_choice_v2_pilot1",NA,52,0,-1,-1,"Number of Bedrooms,Proximity to Waterfront/Beaches,Climate of Area,Age of Building,Hardwood Floors,Freshly Painted Exterior,Amount of Natural Light","1,30 min,Very Bad,New,Yes,No,No natural light","3,30 min,Bad,Medium,Yes,No,No natural light",1,11444,"2021-10-07 15:23:05",2175,1,NA,NA,NA,30,NA,NA,NA,1,3,NA,NA,NA,NA,1,2,1,NA,3,NA,NA,NA,30,NA,NA,NA,1,2,NA,NA,NA,NA,2,2,1,NA,"1,5,15,10,16,17,9"
"129","580fee689c444f0001cfa03a","ma_choice_v2_pilot1",NA,53,0,-1,-1,"Proximity to Waterfront/Beaches,Noise Pollution,Washer/Dryer,Proximity to Parks,Proximity to Cafes/Restaurants,Size of Yard,Size of Home","10 min,Low,Yes,5 min,5 min,Medium,622 sq feet","30 min,Medium,No,5 min,5 min,None,1781 sq feet",0,13613,"2021-10-07 15:23:19",2178,NA,NA,NA,5,10,5,1,NA,NA,NA,2,3,NA,NA,NA,NA,NA,622,NA,NA,NA,5,30,5,2,NA,NA,NA,1,1,NA,NA,NA,NA,NA,1781,"5,7,11,4,6,12,18"
"130","580fee689c444f0001cfa03a","ma_choice_v2_pilot1",NA,54,0,-1,-1,"Climate of Area,Noise Pollution,Proximity to Cafes/Restaurants,Age of Building,Amount of Natural Light,Proximity to Waterfront/Beaches,Washer/Dryer","Moderate,Medium,20 min,Old,No natural light,60 min,No","Very Good,High,10 min,Old,A lot of natural light,60 min,Yes",1,36203,"2021-10-07 15:23:57",2186,NA,NA,NA,NA,60,20,2,NA,1,1,1,NA,NA,NA,3,NA,NA,NA,NA,NA,NA,NA,60,10,3,NA,4,1,2,NA,NA,NA,5,NA,NA,NA,"15,7,6,10,9,5,11"
"131","580fee689c444f0001cfa03a","ma_choice_v2_pilot1",NA,55,0,-1,-1,"Noise Pollution,Amount of Natural Light,Proximity to Cafes/Restaurants,Proximity to Waterfront/Beaches,Age of Building,Climate of Area,Amount of Crime in Neighborhood","Medium,Moderate natural light,20 min,30 min,Old,Moderate,Very Low","High,A lot of natural light,20 min,10 min,New,Bad,Moderate",0,18556,"2021-10-07 15:24:16",2189,NA,NA,1,NA,30,20,2,NA,3,1,NA,NA,NA,NA,3,NA,NA,NA,NA,NA,3,NA,10,20,3,NA,4,3,NA,NA,NA,NA,2,NA,NA,NA,"7,9,6,5,10,15,3"
"132","580fee689c444f0001cfa03a","ma_choice_v2_pilot1",NA,56,0,-1,-1,"Proximity to Waterfront/Beaches,Amount of Natural Light,Size of Yard,Freshly Painted Exterior,Proximity to Cafes/Restaurants,Washer/Dryer,Size of Home","90 minutes,Moderate natural light,None,No,20 min,No,1393 sq feet","30 min,A lot of natural light,None,Yes,20 min,No,1358 sq feet",1,18800,"2021-10-07 15:24:36",2193,NA,NA,NA,NA,90,20,NA,NA,3,NA,1,1,NA,NA,NA,NA,1,1393,NA,NA,NA,NA,30,20,NA,NA,4,NA,1,1,NA,NA,NA,NA,2,1358,"5,9,12,17,6,11,18"
"133","580fee689c444f0001cfa03a","ma_choice_v2_pilot1",NA,57,0,-1,-1,"Washer/Dryer,Amount of Crime in Neighborhood,Size of Garage,Size of Home,Central AC,Proximity to Waterfront/Beaches,Amount of Natural Light","No,Very High,Medium,464 sq feet,Yes,30 min,No natural light","Yes,Very High,Large,634 sq feet,No,90 minutes,No natural light",0,24998,"2021-10-07 15:25:02",2196,NA,3,5,NA,30,NA,NA,NA,1,NA,1,NA,NA,2,NA,NA,NA,464,NA,4,5,NA,90,NA,NA,NA,1,NA,2,NA,NA,1,NA,NA,NA,634,"11,3,2,18,14,5,9"
"134","580fee689c444f0001cfa03a","ma_choice_v2_pilot1",NA,58,0,-1,-1,"Size of Yard,Size of Home,Proximity to Cafes/Restaurants,Noise Pollution,Amount of Crime in Neighborhood,Freshly Painted Exterior,Central AC","Medium,1110 sq feet,10 min,Low,Moderate,Yes,Yes","Small,1036 sq feet,10 min,Low,Low,Yes,Yes",1,16888,"2021-10-07 15:25:20",2201,NA,NA,3,NA,NA,10,1,NA,NA,NA,NA,3,NA,2,NA,NA,2,1110,NA,NA,2,NA,NA,10,1,NA,NA,NA,NA,2,NA,2,NA,NA,2,1036,"12,18,6,7,3,17,14"
"135","580fee689c444f0001cfa03a","ma_choice_v2_pilot1",NA,59,0,-1,-1,"Size of Home,Proximity to Cafes/Restaurants,Size of Yard,Fireplace,Amount of Natural Light,Age of Building,Number of Bedrooms","567 sq feet,20 min,Small,Yes,A little natural light,Old,2","1562 sq feet,10 min,Small,Yes,Moderate natural light,New,3",1,17543,"2021-10-07 15:25:38",2205,2,NA,NA,NA,NA,20,NA,NA,2,1,NA,2,2,NA,NA,NA,NA,567,3,NA,NA,NA,NA,10,NA,NA,3,3,NA,2,2,NA,NA,NA,NA,1562,"18,6,12,13,9,10,1"
"136","580fee689c444f0001cfa03a","ma_choice_v2_pilot1",NA,60,0,-1,-1,"Size of Home,Age of Building,Proximity to Waterfront/Beaches,Central AC,Proximity to Cafes/Restaurants,Size of Yard,Freshly Painted Exterior","851 sq feet,Medium,10 min,Yes,10 min,None,No","1073 sq feet,Old,30 min,Yes,10 min,None,Yes",0,15191,"2021-10-07 15:25:55",2208,NA,NA,NA,NA,10,10,NA,NA,NA,2,NA,1,NA,2,NA,NA,1,851,NA,NA,NA,NA,30,10,NA,NA,NA,1,NA,1,NA,2,NA,NA,2,1073,"18,10,5,14,6,12,17"
"137","580fee689c444f0001cfa03a","ma_choice_v2_pilot1",NA,61,0,-1,-1,"Size of Home,Freshly Painted Exterior,Central AC,Amount of Crime in Neighborhood,Size of Garage,Proximity to Cafes/Restaurants,Number of Bedrooms","1584 sq feet,Yes,No,Low,Medium,20 min,2","1034 sq feet,Yes,No,Very Low,Large,5 min,1",1,20922,"2021-10-07 15:26:17",2211,2,3,2,NA,NA,20,NA,NA,NA,NA,NA,NA,NA,1,NA,NA,2,1584,1,4,1,NA,NA,5,NA,NA,NA,NA,NA,NA,NA,1,NA,NA,2,1034,"18,17,14,3,2,6,1"
"138","580fee689c444f0001cfa03a","ma_choice_v2_pilot1",NA,62,0,-1,-1,"Hardwood Floors,Proximity to Waterfront/Beaches,Proximity to Cafes/Restaurants,Size of Yard,Climate of Area,Proximity to Parks,Washer/Dryer","Yes,60 min,20 min,Small,Good,10 min,No","No,120 minutes,20 min,Small,Good,10 min,No",0,15142,"2021-10-07 15:26:33",2214,NA,NA,NA,10,60,20,NA,NA,NA,NA,1,2,NA,NA,4,2,NA,NA,NA,NA,NA,10,120,20,NA,NA,NA,NA,1,2,NA,NA,4,1,NA,NA,"16,5,6,12,15,4,11"
"139","580fee689c444f0001cfa03a","ma_choice_v2_pilot1",NA,63,0,-1,-1,"Climate of Area,Age of Building,Fireplace,Noise Pollution,Amount of Natural Light,Size of Home,Washer/Dryer","Moderate,New,No,Medium,Moderate natural light,1321 sq feet,Yes","Bad,Old,Yes,Medium,A little natural light,535 sq feet,Yes",0,17487,"2021-10-07 15:26:51",2220,NA,NA,NA,NA,NA,NA,2,NA,3,3,2,NA,1,NA,3,NA,NA,1321,NA,NA,NA,NA,NA,NA,2,NA,2,1,2,NA,2,NA,2,NA,NA,535,"15,10,13,7,9,18,11"
"140","580fee689c444f0001cfa03a","ma_choice_v2_pilot1",NA,64,0,-1,-1,"Size of Garage,Number of Bedrooms,Proximity to Cafes/Restaurants,Washer/Dryer,Proximity to Waterfront/Beaches,Noise Pollution,Freshly Painted Exterior","Small,1,10 min,Yes,60 min,Low,No","Large,3,5 min,Yes,120 minutes,High,Yes",0,16396,"2021-10-07 15:27:09",2227,1,2,NA,NA,60,10,1,NA,NA,NA,2,NA,NA,NA,NA,NA,1,NA,3,4,NA,NA,120,5,3,NA,NA,NA,2,NA,NA,NA,NA,NA,2,NA,"2,1,6,11,5,7,17"
"141","580fee689c444f0001cfa03a","ma_choice_v2_pilot1",NA,65,0,-1,-1,"Fireplace,Hardwood Floors,Size of Home,Size of Yard,Number of Bedrooms,Washer/Dryer,Proximity to Cafes/Restaurants","Yes,Yes,1868 sq feet,None,3,No,20 min","Yes,No,1481 sq feet,Large,2,No,10 min",1,13259,"2021-10-07 15:27:23",2233,3,NA,NA,NA,NA,20,NA,NA,NA,NA,1,1,2,NA,NA,2,NA,1868,2,NA,NA,NA,NA,10,NA,NA,NA,NA,1,4,2,NA,NA,1,NA,1481,"13,16,18,12,1,11,6"
"142","580fee689c444f0001cfa03a","ma_choice_v2_pilot1",NA,66,0,-1,-1,"Size of Home,Central AC,Amount of Crime in Neighborhood,Amount of Natural Light,Washer/Dryer,Freshly Painted Exterior,Proximity to Parks","1348 sq feet,Yes,High,A lot of natural light,No,No,10 min","897 sq feet,No,Moderate,No natural light,Yes,Yes,10 min",1,21146,"2021-10-07 15:27:45",2240,NA,NA,4,10,NA,NA,NA,NA,4,NA,1,NA,NA,2,NA,NA,1,1348,NA,NA,3,10,NA,NA,NA,NA,1,NA,2,NA,NA,1,NA,NA,2,897,"18,14,3,9,11,17,4"
"143","580fee689c444f0001cfa03a","ma_choice_v2_pilot1",NA,67,0,-1,-1,"Size of Yard,Proximity to Waterfront/Beaches,Amount of Crime in Neighborhood,Fireplace,Amount of Natural Light,Hardwood Floors,Reputation of Closest School","Small,120 minutes,High,No,A lot of natural light,Yes,Very Bad","None,90 minutes,Moderate,No,A little natural light,Yes,Bad",1,53071,"2021-10-07 15:28:42",2259,NA,NA,4,NA,120,NA,NA,1,4,NA,NA,2,1,NA,NA,2,NA,NA,NA,NA,3,NA,90,NA,NA,2,2,NA,NA,1,1,NA,NA,2,NA,NA,"12,5,3,13,9,16,8"
"144","580fee689c444f0001cfa03a","ma_choice_v2_pilot1",NA,68,0,-1,-1,"Reputation of Closest School,Central AC,Noise Pollution,Amount of Natural Light,Amount of Crime in Neighborhood,Hardwood Floors,Size of Garage","Good,Yes,Medium,A little natural light,Very Low,Yes,Small","Bad,Yes,Low,A lot of natural light,High,No,Large",0,13168,"2021-10-07 15:28:54",2264,NA,2,1,NA,NA,NA,2,4,2,NA,NA,NA,NA,2,NA,2,NA,NA,NA,4,4,NA,NA,NA,1,2,4,NA,NA,NA,NA,2,NA,1,NA,NA,"8,14,7,9,3,16,2"
"145","580fee689c444f0001cfa03a","ma_choice_v2_pilot1",NA,69,0,-1,-1,"Amount of Natural Light,Age of Building,Freshly Painted Exterior,Size of Home,Noise Pollution,Reputation of Closest School,Central AC","A little natural light,Medium,No,1776 sq feet,High,Moderate,Yes","A lot of natural light,New,No,1118 sq feet,High,Good,No",0,16282,"2021-10-07 15:29:14",2276,NA,NA,NA,NA,NA,NA,3,3,2,2,NA,NA,NA,2,NA,NA,1,1776,NA,NA,NA,NA,NA,NA,3,4,4,3,NA,NA,NA,1,NA,NA,1,1118,"9,10,17,18,7,8,14"
"146","580fee689c444f0001cfa03a","ma_choice_v2_pilot1",NA,70,0,-1,-1,"Proximity to Cafes/Restaurants,Proximity to Waterfront/Beaches,Amount of Natural Light,Age of Building,Size of Home,Climate of Area,Fireplace","10 min,10 min,A lot of natural light,Medium,1539 sq feet,Bad,No","10 min,120 minutes,A little natural light,Old,1598 sq feet,Bad,No",0,12674,"2021-10-07 15:29:25",2281,NA,NA,NA,NA,10,10,NA,NA,4,2,NA,NA,1,NA,2,NA,NA,1539,NA,NA,NA,NA,120,10,NA,NA,2,1,NA,NA,1,NA,2,NA,NA,1598,"6,5,9,10,18,15,13"
"147","580fee689c444f0001cfa03a","ma_choice_v2_pilot1",NA,71,0,-1,-1,"Fireplace,Proximity to Parks,Amount of Natural Light,Size of Yard,Amount of Crime in Neighborhood,Freshly Painted Exterior,Proximity to Cafes/Restaurants","Yes,10 min,Moderate natural light,Medium,Very Low,No,10 min","Yes,20 min,No natural light,Medium,Low,No,5 min",0,25013,"2021-10-07 15:29:50",2295,NA,NA,1,10,NA,10,NA,NA,3,NA,NA,3,2,NA,NA,NA,1,NA,NA,NA,2,20,NA,5,NA,NA,1,NA,NA,3,2,NA,NA,NA,1,NA,"13,4,9,12,3,17,6"
"148","580fee689c444f0001cfa03a","ma_choice_v2_pilot1",NA,72,0,-1,-1,"Reputation of Closest School,Proximity to Cafes/Restaurants,Age of Building,Amount of Natural Light,Size of Garage,Washer/Dryer,Size of Yard","Very Bad,10 min,Old,No natural light,Large,No,Small","Very Bad,20 min,Medium,A little natural light,Medium,Yes,Small",1,21955,"2021-10-07 15:30:13",2307,NA,4,NA,NA,NA,10,NA,1,1,1,1,2,NA,NA,NA,NA,NA,NA,NA,3,NA,NA,NA,20,NA,1,2,2,2,2,NA,NA,NA,NA,NA,NA,"8,6,10,9,2,11,12"
"149","580fee689c444f0001cfa03a","ma_choice_v2_pilot1",NA,73,0,-1,-1,"Central AC,Washer/Dryer,Proximity to Parks,Hardwood Floors,Freshly Painted Exterior,Amount of Crime in Neighborhood,Amount of Natural Light","Yes,No,10 min,Yes,No,Moderate,A little natural light","No,Yes,5 min,Yes,No,High,No natural light",0,11133,"2021-10-07 15:30:25",2313,NA,NA,3,10,NA,NA,NA,NA,2,NA,1,NA,NA,2,NA,2,1,NA,NA,NA,4,5,NA,NA,NA,NA,1,NA,2,NA,NA,1,NA,2,1,NA,"14,11,4,16,17,3,9"
"150","580fee689c444f0001cfa03a","ma_choice_v2_pilot1",NA,74,0,-1,-1,"Climate of Area,Proximity to Parks,Fireplace,Number of Bedrooms,Central AC,Freshly Painted Exterior,Size of Garage","Bad,20 min,Yes,3,Yes,No,Medium","Very Good,20 min,No,2,Yes,Yes,None",1,13326,"2021-10-07 15:30:40",2319,3,3,NA,20,NA,NA,NA,NA,NA,NA,NA,NA,2,2,2,NA,1,NA,2,1,NA,20,NA,NA,NA,NA,NA,NA,NA,NA,1,2,5,NA,2,NA,"15,4,13,1,14,17,2"
"151","59d1284e19d3170001b1d67c","ma_choice_v2_pilot1",NA,0,0,-1,-1,"Central AC,Reputation of Closest School,Amount of Crime in Neighborhood,Freshly Painted Exterior,Hardwood Floors,Size of Yard,Age of Building","Yes,Very Bad,Moderate,No,No,Small,Old","Yes,Moderate,Very High,Yes,No,Medium,Old",0,8867,"2021-10-07 15:34:38",2458,NA,NA,3,NA,NA,NA,NA,1,NA,1,NA,2,NA,2,NA,1,1,NA,NA,NA,5,NA,NA,NA,NA,3,NA,1,NA,3,NA,2,NA,1,2,NA,"14,8,3,17,16,12,10"
"152","59d1284e19d3170001b1d67c","ma_choice_v2_pilot1",NA,1,0,-1,-1,"Washer/Dryer,Central AC,Proximity to Waterfront/Beaches,Hardwood Floors,Reputation of Closest School,Noise Pollution,Fireplace","No,Yes,60 min,Yes,Very Bad,High,No","Yes,No,60 min,Yes,Moderate,Medium,Yes",1,19622,"2021-10-07 15:34:58",2469,NA,NA,NA,NA,60,NA,3,1,NA,NA,1,NA,1,2,NA,2,NA,NA,NA,NA,NA,NA,60,NA,2,3,NA,NA,2,NA,2,1,NA,2,NA,NA,"11,14,5,16,8,7,13"
"153","59d1284e19d3170001b1d67c","ma_choice_v2_pilot1",NA,2,0,-1,-1,"Size of Yard,Proximity to Cafes/Restaurants,Age of Building,Central AC,Fireplace,Number of Bedrooms,Climate of Area","Large,20 min,Old,No,No,2,Bad","None,20 min,Old,No,No,3,Very Bad",0,7998,"2021-10-07 15:35:07",2473,2,NA,NA,NA,NA,20,NA,NA,NA,1,NA,4,1,1,2,NA,NA,NA,3,NA,NA,NA,NA,20,NA,NA,NA,1,NA,1,1,1,1,NA,NA,NA,"12,6,10,14,13,1,15"
"154","59d1284e19d3170001b1d67c","ma_choice_v2_pilot1",NA,3,0,-1,-1,"Amount of Natural Light,Noise Pollution,Age of Building,Size of Garage,Reputation of Closest School,Size of Yard,Central AC","A lot of natural light,Low,New,Large,Moderate,None,No","A little natural light,Medium,New,None,Moderate,Medium,No",0,17127,"2021-10-07 15:35:26",2485,NA,4,NA,NA,NA,NA,1,3,4,3,NA,1,NA,1,NA,NA,NA,NA,NA,1,NA,NA,NA,NA,2,3,2,3,NA,3,NA,1,NA,NA,NA,NA,"9,7,10,2,8,12,14"
"155","59d1284e19d3170001b1d67c","ma_choice_v2_pilot1",NA,4,0,-1,-1,"Size of Garage,Age of Building,Number of Bedrooms,Freshly Painted Exterior,Central AC,Washer/Dryer,Amount of Crime in Neighborhood","None,Old,3,Yes,No,Yes,Low","Medium,Medium,3,Yes,Yes,Yes,Low",1,11968,"2021-10-07 15:35:39",2492,3,1,2,NA,NA,NA,NA,NA,NA,1,2,NA,NA,1,NA,NA,2,NA,3,3,2,NA,NA,NA,NA,NA,NA,2,2,NA,NA,2,NA,NA,2,NA,"2,10,1,17,14,11,3"
"156","59d1284e19d3170001b1d67c","ma_choice_v2_pilot1",NA,5,0,-1,-1,"Proximity to Cafes/Restaurants,Freshly Painted Exterior,Climate of Area,Amount of Crime in Neighborhood,Age of Building,Amount of Natural Light,Fireplace","20 min,Yes,Moderate,Very High,Old,Moderate natural light,No","5 min,Yes,Very Bad,Very High,New,A lot of natural light,Yes",1,7940,"2021-10-07 15:35:47",2499,NA,NA,5,NA,NA,20,NA,NA,3,1,NA,NA,1,NA,3,NA,2,NA,NA,NA,5,NA,NA,5,NA,NA,4,3,NA,NA,2,NA,1,NA,2,NA,"6,17,15,3,10,9,13"
"157","59d1284e19d3170001b1d67c","ma_choice_v2_pilot1",NA,6,0,-1,-1,"Amount of Natural Light,Washer/Dryer,Freshly Painted Exterior,Noise Pollution,Proximity to Waterfront/Beaches,Reputation of Closest School,Age of Building","Moderate natural light,No,No,Medium,120 minutes,Bad,Old","A little natural light,Yes,Yes,Medium,120 minutes,Bad,New",1,14054,"2021-10-07 15:36:03",2507,NA,NA,NA,NA,120,NA,2,2,3,1,1,NA,NA,NA,NA,NA,1,NA,NA,NA,NA,NA,120,NA,2,2,2,3,2,NA,NA,NA,NA,NA,2,NA,"9,11,17,7,5,8,10"
"158","59d1284e19d3170001b1d67c","ma_choice_v2_pilot1",NA,7,0,-1,-1,"Size of Home,Fireplace,Hardwood Floors,Size of Yard,Freshly Painted Exterior,Climate of Area,Amount of Crime in Neighborhood","1092 sq feet,No,No,None,Yes,Bad,Very Low","963 sq feet,No,No,Large,No,Very Good,Low",1,17339,"2021-10-07 15:36:21",2518,NA,NA,1,NA,NA,NA,NA,NA,NA,NA,NA,1,1,NA,2,1,2,1092,NA,NA,2,NA,NA,NA,NA,NA,NA,NA,NA,4,1,NA,5,1,1,963,"18,13,16,12,17,15,3"
"159","59d1284e19d3170001b1d67c","ma_choice_v2_pilot1",NA,8,0,-1,-1,"Washer/Dryer,Proximity to Cafes/Restaurants,Hardwood Floors,Amount of Natural Light,Reputation of Closest School,Climate of Area,Fireplace","No,5 min,No,A little natural light,Very Bad,Good,Yes","No,5 min,No,No natural light,Very Bad,Good,No",0,18370,"2021-10-07 15:36:40",2529,NA,NA,NA,NA,NA,5,NA,1,2,NA,1,NA,2,NA,4,1,NA,NA,NA,NA,NA,NA,NA,5,NA,1,1,NA,1,NA,1,NA,4,1,NA,NA,"11,6,16,9,8,15,13"
"160","59d1284e19d3170001b1d67c","ma_choice_v2_pilot1",NA,9,0,-1,-1,"Proximity to Parks,Washer/Dryer,Size of Home,Proximity to Waterfront/Beaches,Fireplace,Proximity to Cafes/Restaurants,Hardwood Floors","20 min,Yes,1656 sq feet,30 min,No,10 min,No","10 min,No,1783 sq feet,10 min,Yes,10 min,Yes",1,13954,"2021-10-07 15:36:55",2539,NA,NA,NA,20,30,10,NA,NA,NA,NA,2,NA,1,NA,NA,1,NA,1656,NA,NA,NA,10,10,10,NA,NA,NA,NA,1,NA,2,NA,NA,2,NA,1783,"4,11,18,5,13,6,16"
"161","59d1284e19d3170001b1d67c","ma_choice_v2_pilot1",NA,10,0,-1,-1,"Freshly Painted Exterior,Reputation of Closest School,Size of Garage,Hardwood Floors,Amount of Crime in Neighborhood,Number of Bedrooms,Amount of Natural Light","No,Bad,Medium,No,High,1,A little natural light","No,Very Good,Large,Yes,Very High,1,Moderate natural light",0,38972,"2021-10-07 15:37:35",2561,1,3,4,NA,NA,NA,NA,2,2,NA,NA,NA,NA,NA,NA,1,1,NA,1,4,5,NA,NA,NA,NA,5,3,NA,NA,NA,NA,NA,NA,2,1,NA,"17,8,2,16,3,1,9"
"162","59d1284e19d3170001b1d67c","ma_choice_v2_pilot1",NA,11,0,-1,-1,"Size of Yard,Number of Bedrooms,Size of Home,Amount of Natural Light,Climate of Area,Age of Building,Proximity to Waterfront/Beaches","Large,1,1388 sq feet,Moderate natural light,Very Good,Medium,10 min","None,2,646 sq feet,A lot of natural light,Very Good,Old,10 min",0,19396,"2021-10-07 15:37:56",2570,1,NA,NA,NA,10,NA,NA,NA,3,2,NA,4,NA,NA,5,NA,NA,1388,2,NA,NA,NA,10,NA,NA,NA,4,1,NA,1,NA,NA,5,NA,NA,646,"12,1,18,9,15,10,5"
"163","59d1284e19d3170001b1d67c","ma_choice_v2_pilot1",NA,12,0,-1,-1,"Washer/Dryer,Amount of Natural Light,Central AC,Hardwood Floors,Proximity to Parks,Size of Home,Size of Yard","Yes,No natural light,No,No,20 min,1580 sq feet,None","Yes,Moderate natural light,Yes,Yes,10 min,1678 sq feet,Large",1,12158,"2021-10-07 15:38:09",2577,NA,NA,NA,20,NA,NA,NA,NA,1,NA,2,1,NA,1,NA,1,NA,1580,NA,NA,NA,10,NA,NA,NA,NA,3,NA,2,4,NA,2,NA,2,NA,1678,"11,9,14,16,4,18,12"
"164","59d1284e19d3170001b1d67c","ma_choice_v2_pilot1",NA,13,0,-1,-1,"Freshly Painted Exterior,Age of Building,Size of Garage,Noise Pollution,Fireplace,Number of Bedrooms,Proximity to Cafes/Restaurants","Yes,New,Small,Medium,Yes,2,20 min","Yes,New,None,Low,No,2,20 min",0,9025,"2021-10-07 15:38:19",2583,2,2,NA,NA,NA,20,2,NA,NA,3,NA,NA,2,NA,NA,NA,2,NA,2,1,NA,NA,NA,20,1,NA,NA,3,NA,NA,1,NA,NA,NA,2,NA,"17,10,2,7,13,1,6"
"165","59d1284e19d3170001b1d67c","ma_choice_v2_pilot1",NA,14,0,-1,-1,"Reputation of Closest School,Size of Garage,Central AC,Proximity to Parks,Washer/Dryer,Number of Bedrooms,Freshly Painted Exterior","Very Good,Small,No,20 min,No,1,No","Very Bad,Large,Yes,20 min,No,2,Yes",1,39788,"2021-10-07 15:39:00",2604,1,2,NA,20,NA,NA,NA,5,NA,NA,1,NA,NA,1,NA,NA,1,NA,2,4,NA,20,NA,NA,NA,1,NA,NA,1,NA,NA,2,NA,NA,2,NA,"8,2,14,4,11,1,17"
"166","59d1284e19d3170001b1d67c","ma_choice_v2_pilot1",NA,15,0,-1,-1,"Climate of Area,Age of Building,Amount of Crime in Neighborhood,Freshly Painted Exterior,Proximity to Parks,Proximity to Cafes/Restaurants,Size of Home","Bad,Old,Very Low,No,5 min,5 min,1086 sq feet","Very Good,Medium,Very High,No,10 min,20 min,447 sq feet",0,10241,"2021-10-07 15:39:11",2612,NA,NA,1,5,NA,5,NA,NA,NA,1,NA,NA,NA,NA,2,NA,1,1086,NA,NA,5,10,NA,20,NA,NA,NA,2,NA,NA,NA,NA,5,NA,1,447,"15,10,3,17,4,6,18"
"167","59d1284e19d3170001b1d67c","ma_choice_v2_pilot1",NA,16,0,-1,-1,"Size of Yard,Reputation of Closest School,Age of Building,Size of Home,Number of Bedrooms,Climate of Area,Amount of Crime in Neighborhood","Large,Good,New,1721 sq feet,1,Bad,Moderate","Large,Good,New,1267 sq feet,2,Very Bad,Moderate",0,18059,"2021-10-07 15:39:30",2623,1,NA,3,NA,NA,NA,NA,4,NA,3,NA,4,NA,NA,2,NA,NA,1721,2,NA,3,NA,NA,NA,NA,4,NA,3,NA,4,NA,NA,1,NA,NA,1267,"12,8,10,18,1,15,3"
"168","59d1284e19d3170001b1d67c","ma_choice_v2_pilot1",NA,17,0,-1,-1,"Reputation of Closest School,Size of Home,Hardwood Floors,Proximity to Waterfront/Beaches,Amount of Crime in Neighborhood,Noise Pollution,Climate of Area","Bad,817 sq feet,Yes,90 minutes,Very High,Medium,Good","Very Good,869 sq feet,No,30 min,Low,Medium,Moderate",1,8774,"2021-10-07 15:39:40",2631,NA,NA,5,NA,90,NA,2,2,NA,NA,NA,NA,NA,NA,4,2,NA,817,NA,NA,2,NA,30,NA,2,5,NA,NA,NA,NA,NA,NA,3,1,NA,869,"8,18,16,5,3,7,15"
"169","59d1284e19d3170001b1d67c","ma_choice_v2_pilot1",NA,18,0,-1,-1,"Number of Bedrooms,Size of Home,Proximity to Waterfront/Beaches,Size of Yard,Noise Pollution,Proximity to Parks,Amount of Crime in Neighborhood","3,1176 sq feet,90 minutes,Medium,High,5 min,Moderate","2,1654 sq feet,120 minutes,Large,Low,5 min,Low",1,13362,"2021-10-07 15:39:54",2642,3,NA,3,5,90,NA,3,NA,NA,NA,NA,3,NA,NA,NA,NA,NA,1176,2,NA,2,5,120,NA,1,NA,NA,NA,NA,4,NA,NA,NA,NA,NA,1654,"1,18,5,12,7,4,3"
"170","59d1284e19d3170001b1d67c","ma_choice_v2_pilot1",NA,19,0,-1,-1,"Amount of Crime in Neighborhood,Fireplace,Proximity to Cafes/Restaurants,Central AC,Size of Garage,Amount of Natural Light,Climate of Area","High,No,5 min,No,Large,A little natural light,Good","Low,No,10 min,Yes,None,No natural light,Very Bad",1,14364,"2021-10-07 15:40:11",2652,NA,4,4,NA,NA,5,NA,NA,2,NA,NA,NA,1,1,4,NA,NA,NA,NA,1,2,NA,NA,10,NA,NA,1,NA,NA,NA,1,2,1,NA,NA,NA,"3,13,6,14,2,9,15"
"171","59d1284e19d3170001b1d67c","ma_choice_v2_pilot1",NA,20,0,-1,-1,"Age of Building,Central AC,Amount of Crime in Neighborhood,Fireplace,Proximity to Waterfront/Beaches,Number of Bedrooms,Size of Home","Medium,No,Low,Yes,30 min,2,447 sq feet","Medium,No,Low,Yes,90 minutes,1,782 sq feet",0,11505,"2021-10-07 15:40:22",2665,2,NA,2,NA,30,NA,NA,NA,NA,2,NA,NA,2,1,NA,NA,NA,447,1,NA,2,NA,90,NA,NA,NA,NA,2,NA,NA,2,1,NA,NA,NA,782,"10,14,3,13,5,1,18"
"172","59d1284e19d3170001b1d67c","ma_choice_v2_pilot1",NA,21,0,-1,-1,"Washer/Dryer,Freshly Painted Exterior,Number of Bedrooms,Proximity to Waterfront/Beaches,Reputation of Closest School,Age of Building,Climate of Area","Yes,No,2,90 minutes,Very Bad,Medium,Very Bad","Yes,Yes,3,60 min,Good,Medium,Very Bad",1,7745,"2021-10-07 15:40:31",2672,2,NA,NA,NA,90,NA,NA,1,NA,2,2,NA,NA,NA,1,NA,1,NA,3,NA,NA,NA,60,NA,NA,4,NA,2,2,NA,NA,NA,1,NA,2,NA,"11,17,1,5,8,10,15"
"173","59d1284e19d3170001b1d67c","ma_choice_v2_pilot1",NA,22,0,-1,-1,"Amount of Natural Light,Hardwood Floors,Proximity to Waterfront/Beaches,Amount of Crime in Neighborhood,Number of Bedrooms,Size of Yard,Proximity to Cafes/Restaurants","A little natural light,No,90 minutes,Moderate,2,Small,20 min","Moderate natural light,Yes,30 min,Low,2,None,5 min",1,11456,"2021-10-07 15:40:44",2681,2,NA,3,NA,90,20,NA,NA,2,NA,NA,2,NA,NA,NA,1,NA,NA,2,NA,2,NA,30,5,NA,NA,3,NA,NA,1,NA,NA,NA,2,NA,NA,"9,16,5,3,1,12,6"
"174","59d1284e19d3170001b1d67c","ma_choice_v2_pilot1",NA,23,0,-1,-1,"Proximity to Cafes/Restaurants,Reputation of Closest School,Number of Bedrooms,Washer/Dryer,Proximity to Waterfront/Beaches,Freshly Painted Exterior,Size of Yard","10 min,Very Bad,3,No,120 minutes,No,Medium","10 min,Moderate,3,No,120 minutes,No,None",0,19801,"2021-10-07 15:41:04",2697,3,NA,NA,NA,120,10,NA,1,NA,NA,1,3,NA,NA,NA,NA,1,NA,3,NA,NA,NA,120,10,NA,3,NA,NA,1,1,NA,NA,NA,NA,1,NA,"6,8,1,11,5,17,12"
"175","59d1284e19d3170001b1d67c","ma_choice_v2_pilot1",NA,24,0,-1,-1,"Amount of Crime in Neighborhood,Proximity to Parks,Central AC,Climate of Area,Age of Building,Fireplace,Proximity to Waterfront/Beaches","High,20 min,No,Very Good,Old,No,10 min","Very High,5 min,Yes,Moderate,New,Yes,10 min",1,17617,"2021-10-07 15:41:23",2709,NA,NA,4,20,10,NA,NA,NA,NA,1,NA,NA,1,1,5,NA,NA,NA,NA,NA,5,5,10,NA,NA,NA,NA,3,NA,NA,2,2,3,NA,NA,NA,"3,4,14,15,10,13,5"
"176","59d1284e19d3170001b1d67c","ma_choice_v2_pilot1",NA,25,0,-1,-1,"Amount of Crime in Neighborhood,Number of Bedrooms,Fireplace,Age of Building,Washer/Dryer,Size of Garage,Size of Yard","Moderate,3,No,Medium,Yes,Medium,Medium","Low,2,No,New,Yes,Small,Small",1,13531,"2021-10-07 15:41:37",2715,3,3,3,NA,NA,NA,NA,NA,NA,2,2,3,1,NA,NA,NA,NA,NA,2,2,2,NA,NA,NA,NA,NA,NA,3,2,2,1,NA,NA,NA,NA,NA,"3,1,13,10,11,2,12"
"177","59d1284e19d3170001b1d67c","ma_choice_v2_pilot1",NA,26,0,-1,-1,"Hardwood Floors,Size of Garage,Fireplace,Age of Building,Amount of Crime in Neighborhood,Proximity to Parks,Number of Bedrooms","Yes,None,No,New,Low,20 min,3","No,None,Yes,Medium,Very Low,10 min,2",1,21953,"2021-10-07 15:42:00",2724,3,1,2,20,NA,NA,NA,NA,NA,3,NA,NA,1,NA,NA,2,NA,NA,2,1,1,10,NA,NA,NA,NA,NA,2,NA,NA,2,NA,NA,1,NA,NA,"16,2,13,10,3,4,1"
"178","59d1284e19d3170001b1d67c","ma_choice_v2_pilot1",NA,27,0,-1,-1,"Size of Home,Number of Bedrooms,Amount of Crime in Neighborhood,Reputation of Closest School,Washer/Dryer,Freshly Painted Exterior,Proximity to Parks","1077 sq feet,2,Very Low,Bad,Yes,No,20 min","517 sq feet,1,Moderate,Very Bad,Yes,Yes,10 min",0,10698,"2021-10-07 15:42:12",2731,2,NA,1,20,NA,NA,NA,2,NA,NA,2,NA,NA,NA,NA,NA,1,1077,1,NA,3,10,NA,NA,NA,1,NA,NA,2,NA,NA,NA,NA,NA,2,517,"18,1,3,8,11,17,4"
"179","59d1284e19d3170001b1d67c","ma_choice_v2_pilot1",NA,28,0,-1,-1,"Washer/Dryer,Central AC,Fireplace,Proximity to Parks,Proximity to Cafes/Restaurants,Noise Pollution,Freshly Painted Exterior","No,No,No,20 min,20 min,Low,Yes","No,Yes,Yes,20 min,10 min,Medium,Yes",1,20058,"2021-10-07 15:42:33",2745,NA,NA,NA,20,NA,20,1,NA,NA,NA,1,NA,1,1,NA,NA,2,NA,NA,NA,NA,20,NA,10,2,NA,NA,NA,1,NA,2,2,NA,NA,2,NA,"11,14,13,4,6,7,17"
"180","59d1284e19d3170001b1d67c","ma_choice_v2_pilot1",NA,29,0,-1,-1,"Fireplace,Amount of Crime in Neighborhood,Proximity to Parks,Climate of Area,Proximity to Cafes/Restaurants,Number of Bedrooms,Reputation of Closest School","No,High,20 min,Very Bad,20 min,1,Bad","Yes,Low,10 min,Moderate,5 min,3,Bad",1,36863,"2021-10-07 15:43:11",2771,1,NA,4,20,NA,20,NA,2,NA,NA,NA,NA,1,NA,1,NA,NA,NA,3,NA,2,10,NA,5,NA,2,NA,NA,NA,NA,2,NA,3,NA,NA,NA,"13,3,4,15,6,1,8"
"181","59d1284e19d3170001b1d67c","ma_choice_v2_pilot1",NA,30,0,-1,-1,"Freshly Painted Exterior,Size of Home,Amount of Crime in Neighborhood,Age of Building,Fireplace,Size of Garage,Climate of Area","Yes,493 sq feet,High,Medium,Yes,Medium,Moderate","Yes,1442 sq feet,Moderate,New,Yes,Small,Very Good",1,8251,"2021-10-07 15:43:20",2779,NA,3,4,NA,NA,NA,NA,NA,NA,2,NA,NA,2,NA,3,NA,2,493,NA,2,3,NA,NA,NA,NA,NA,NA,3,NA,NA,2,NA,5,NA,2,1442,"17,18,3,10,13,2,15"
"182","59d1284e19d3170001b1d67c","ma_choice_v2_pilot1",NA,31,0,-1,-1,"Size of Yard,Proximity to Waterfront/Beaches,Noise Pollution,Age of Building,Climate of Area,Central AC,Size of Garage","Large,10 min,Medium,Medium,Bad,Yes,Medium","None,120 minutes,High,Medium,Moderate,Yes,Large",0,10996,"2021-10-07 15:43:32",2788,NA,3,NA,NA,10,NA,2,NA,NA,2,NA,4,NA,2,2,NA,NA,NA,NA,4,NA,NA,120,NA,3,NA,NA,2,NA,1,NA,2,3,NA,NA,NA,"12,5,7,10,15,14,2"
"183","59d1284e19d3170001b1d67c","ma_choice_v2_pilot1",NA,32,0,-1,-1,"Reputation of Closest School,Age of Building,Proximity to Parks,Amount of Natural Light,Number of Bedrooms,Proximity to Cafes/Restaurants,Size of Yard","Very Good,Old,5 min,Moderate natural light,1,20 min,Medium","Very Bad,Old,20 min,A lot of natural light,1,5 min,Small",0,20075,"2021-10-07 15:43:53",2803,1,NA,NA,5,NA,20,NA,5,3,1,NA,3,NA,NA,NA,NA,NA,NA,1,NA,NA,20,NA,5,NA,1,4,1,NA,2,NA,NA,NA,NA,NA,NA,"8,10,4,9,1,6,12"
"184","59d1284e19d3170001b1d67c","ma_choice_v2_pilot1",NA,33,0,-1,-1,"Proximity to Parks,Proximity to Cafes/Restaurants,Size of Home,Amount of Crime in Neighborhood,Fireplace,Size of Garage,Reputation of Closest School","10 min,10 min,865 sq feet,Moderate,Yes,Large,Very Good","20 min,20 min,1181 sq feet,Very High,Yes,Small,Very Bad",0,8589,"2021-10-07 15:44:03",2808,NA,4,3,10,NA,10,NA,5,NA,NA,NA,NA,2,NA,NA,NA,NA,865,NA,2,5,20,NA,20,NA,1,NA,NA,NA,NA,2,NA,NA,NA,NA,1181,"4,6,18,3,13,2,8"
"185","59d1284e19d3170001b1d67c","ma_choice_v2_pilot1",NA,34,0,-1,-1,"Freshly Painted Exterior,Size of Garage,Fireplace,Hardwood Floors,Proximity to Waterfront/Beaches,Number of Bedrooms,Proximity to Cafes/Restaurants","No,Large,Yes,No,30 min,2,10 min","Yes,Medium,Yes,No,60 min,3,20 min",0,14733,"2021-10-07 15:44:18",2820,2,4,NA,NA,30,10,NA,NA,NA,NA,NA,NA,2,NA,NA,1,1,NA,3,3,NA,NA,60,20,NA,NA,NA,NA,NA,NA,2,NA,NA,1,2,NA,"17,2,13,16,5,1,6"
"186","59d1284e19d3170001b1d67c","ma_choice_v2_pilot1",NA,35,0,-1,-1,"Reputation of Closest School,Proximity to Cafes/Restaurants,Amount of Crime in Neighborhood,Hardwood Floors,Amount of Natural Light,Size of Home,Fireplace","Very Good,5 min,Very Low,Yes,A lot of natural light,1242 sq feet,No","Very Good,20 min,Moderate,No,No natural light,448 sq feet,No",0,7804,"2021-10-07 15:44:27",2827,NA,NA,1,NA,NA,5,NA,5,4,NA,NA,NA,1,NA,NA,2,NA,1242,NA,NA,3,NA,NA,20,NA,5,1,NA,NA,NA,1,NA,NA,1,NA,448,"8,6,3,16,9,18,13"
"187","59d1284e19d3170001b1d67c","ma_choice_v2_pilot1",NA,36,0,-1,-1,"Central AC,Amount of Natural Light,Proximity to Parks,Washer/Dryer,Reputation of Closest School,Proximity to Cafes/Restaurants,Age of Building","Yes,A lot of natural light,5 min,No,Good,10 min,New","Yes,No natural light,5 min,Yes,Very Bad,20 min,Old",0,8349,"2021-10-07 15:44:38",2835,NA,NA,NA,5,NA,10,NA,4,4,3,1,NA,NA,2,NA,NA,NA,NA,NA,NA,NA,5,NA,20,NA,1,1,1,2,NA,NA,2,NA,NA,NA,NA,"14,9,4,11,8,6,10"
"188","59d1284e19d3170001b1d67c","ma_choice_v2_pilot1",NA,37,0,-1,-1,"Central AC,Proximity to Cafes/Restaurants,Amount of Crime in Neighborhood,Reputation of Closest School,Proximity to Parks,Size of Yard,Freshly Painted Exterior","Yes,20 min,Moderate,Very Good,20 min,Medium,Yes","No,10 min,Low,Good,5 min,None,No",0,18671,"2021-10-07 15:44:58",2847,NA,NA,3,20,NA,20,NA,5,NA,NA,NA,3,NA,2,NA,NA,2,NA,NA,NA,2,5,NA,10,NA,4,NA,NA,NA,1,NA,1,NA,NA,1,NA,"14,6,3,8,4,12,17"
"189","59d1284e19d3170001b1d67c","ma_choice_v2_pilot1",NA,38,0,-1,-1,"Size of Garage,Proximity to Waterfront/Beaches,Size of Yard,Amount of Natural Light,Age of Building,Hardwood Floors,Proximity to Cafes/Restaurants","Small,30 min,Medium,A little natural light,Old,Yes,5 min","Small,60 min,Small,No natural light,Old,Yes,5 min",0,44959,"2021-10-07 15:45:43",2881,NA,2,NA,NA,30,5,NA,NA,2,1,NA,3,NA,NA,NA,2,NA,NA,NA,2,NA,NA,60,5,NA,NA,1,1,NA,2,NA,NA,NA,2,NA,NA,"2,5,12,9,10,16,6"
"190","59d1284e19d3170001b1d67c","ma_choice_v2_pilot1",NA,39,0,-1,-1,"Climate of Area,Size of Home,Noise Pollution,Fireplace,Proximity to Waterfront/Beaches,Amount of Crime in Neighborhood,Proximity to Cafes/Restaurants","Very Bad,1372 sq feet,Low,Yes,90 minutes,High,5 min","Very Good,778 sq feet,Low,No,60 min,Moderate,20 min",1,7513,"2021-10-07 15:45:52",2887,NA,NA,4,NA,90,5,1,NA,NA,NA,NA,NA,2,NA,1,NA,NA,1372,NA,NA,3,NA,60,20,1,NA,NA,NA,NA,NA,1,NA,5,NA,NA,778,"15,18,7,13,5,3,6"
"191","59d1284e19d3170001b1d67c","ma_choice_v2_pilot1",NA,40,0,-1,-1,"Size of Yard,Proximity to Cafes/Restaurants,Proximity to Waterfront/Beaches,Reputation of Closest School,Amount of Natural Light,Age of Building,Hardwood Floors","Small,5 min,60 min,Very Good,Moderate natural light,Old,No","Large,10 min,60 min,Bad,Moderate natural light,Medium,No",1,14984,"2021-10-07 15:46:13",2902,NA,NA,NA,NA,60,5,NA,5,3,1,NA,2,NA,NA,NA,1,NA,NA,NA,NA,NA,NA,60,10,NA,2,3,2,NA,4,NA,NA,NA,1,NA,NA,"12,6,5,8,9,10,16"
"192","59d1284e19d3170001b1d67c","ma_choice_v2_pilot1",NA,41,0,-1,-1,"Size of Home,Number of Bedrooms,Central AC,Fireplace,Freshly Painted Exterior,Size of Yard,Size of Garage","1746 sq feet,3,No,Yes,No,Small,Small","843 sq feet,3,Yes,Yes,No,Small,Small",0,15939,"2021-10-07 15:46:24",2909,3,2,NA,NA,NA,NA,NA,NA,NA,NA,NA,2,2,1,NA,NA,1,1746,3,2,NA,NA,NA,NA,NA,NA,NA,NA,NA,2,2,2,NA,NA,1,843,"18,1,14,13,17,12,2"
"193","59d1284e19d3170001b1d67c","ma_choice_v2_pilot1",NA,42,0,-1,-1,"Reputation of Closest School,Proximity to Parks,Size of Yard,Proximity to Waterfront/Beaches,Fireplace,Size of Home,Hardwood Floors","Good,10 min,None,120 minutes,Yes,846 sq feet,Yes","Good,10 min,Small,10 min,Yes,1580 sq feet,No",1,39959,"2021-10-07 15:47:05",2935,NA,NA,NA,10,120,NA,NA,4,NA,NA,NA,1,2,NA,NA,2,NA,846,NA,NA,NA,10,10,NA,NA,4,NA,NA,NA,2,2,NA,NA,1,NA,1580,"8,4,12,5,13,18,16"
"194","59d1284e19d3170001b1d67c","ma_choice_v2_pilot1",NA,43,0,-1,-1,"Fireplace,Washer/Dryer,Noise Pollution,Freshly Painted Exterior,Proximity to Parks,Hardwood Floors,Size of Yard","No,No,High,Yes,10 min,Yes,Large","No,No,Medium,Yes,10 min,Yes,Medium",1,14357,"2021-10-07 15:47:20",2947,NA,NA,NA,10,NA,NA,3,NA,NA,NA,1,4,1,NA,NA,2,2,NA,NA,NA,NA,10,NA,NA,2,NA,NA,NA,1,3,1,NA,NA,2,2,NA,"13,11,7,17,4,16,12"
"195","59d1284e19d3170001b1d67c","ma_choice_v2_pilot1",NA,44,0,-1,-1,"Central AC,Size of Home,Reputation of Closest School,Proximity to Parks,Proximity to Waterfront/Beaches,Amount of Natural Light,Number of Bedrooms","Yes,1635 sq feet,Moderate,5 min,30 min,Moderate natural light,2","Yes,778 sq feet,Bad,20 min,30 min,A lot of natural light,2",0,12866,"2021-10-07 15:47:34",2956,2,NA,NA,5,30,NA,NA,3,3,NA,NA,NA,NA,2,NA,NA,NA,1635,2,NA,NA,20,30,NA,NA,2,4,NA,NA,NA,NA,2,NA,NA,NA,778,"14,18,8,4,5,9,1"
"196","59d1284e19d3170001b1d67c","ma_choice_v2_pilot1",NA,45,0,-1,-1,"Amount of Crime in Neighborhood,Proximity to Parks,Reputation of Closest School,Noise Pollution,Proximity to Waterfront/Beaches,Climate of Area,Age of Building","Low,5 min,Moderate,High,10 min,Very Good,Medium","Very High,5 min,Good,High,120 minutes,Very Bad,Medium",0,23567,"2021-10-07 15:47:58",2974,NA,NA,2,5,10,NA,3,3,NA,2,NA,NA,NA,NA,5,NA,NA,NA,NA,NA,5,5,120,NA,3,4,NA,2,NA,NA,NA,NA,1,NA,NA,NA,"3,4,8,7,5,15,10"
"197","59d1284e19d3170001b1d67c","ma_choice_v2_pilot1",NA,46,0,-1,-1,"Freshly Painted Exterior,Amount of Crime in Neighborhood,Central AC,Size of Garage,Fireplace,Amount of Natural Light,Proximity to Cafes/Restaurants","No,High,Yes,Large,Yes,Moderate natural light,20 min","Yes,High,No,Large,No,A little natural light,10 min",0,7854,"2021-10-07 15:48:07",2980,NA,4,4,NA,NA,20,NA,NA,3,NA,NA,NA,2,2,NA,NA,1,NA,NA,4,4,NA,NA,10,NA,NA,2,NA,NA,NA,1,1,NA,NA,2,NA,"17,3,14,2,13,9,6"
"198","59d1284e19d3170001b1d67c","ma_choice_v2_pilot1",NA,47,0,-1,-1,"Hardwood Floors,Proximity to Parks,Noise Pollution,Size of Home,Fireplace,Number of Bedrooms,Proximity to Cafes/Restaurants","Yes,20 min,Medium,925 sq feet,No,2,10 min","Yes,5 min,Medium,1780 sq feet,Yes,1,10 min",1,34287,"2021-10-07 15:48:43",2999,2,NA,NA,20,NA,10,2,NA,NA,NA,NA,NA,1,NA,NA,2,NA,925,1,NA,NA,5,NA,10,2,NA,NA,NA,NA,NA,2,NA,NA,2,NA,1780,"16,4,7,18,13,1,6"
"199","59d1284e19d3170001b1d67c","ma_choice_v2_pilot1",NA,48,0,-1,-1,"Washer/Dryer,Fireplace,Central AC,Noise Pollution,Size of Home,Proximity to Cafes/Restaurants,Climate of Area","No,Yes,No,Low,1352 sq feet,20 min,Moderate","Yes,No,Yes,High,587 sq feet,10 min,Good",1,13151,"2021-10-07 15:48:57",3010,NA,NA,NA,NA,NA,20,1,NA,NA,NA,1,NA,2,1,3,NA,NA,1352,NA,NA,NA,NA,NA,10,3,NA,NA,NA,2,NA,1,2,4,NA,NA,587,"11,13,14,7,18,6,15"
"200","59d1284e19d3170001b1d67c","ma_choice_v2_pilot1",NA,49,0,-1,-1,"Size of Home,Proximity to Cafes/Restaurants,Reputation of Closest School,Size of Garage,Noise Pollution,Proximity to Parks,Freshly Painted Exterior","818 sq feet,5 min,Good,None,Medium,20 min,Yes","990 sq feet,5 min,Very Bad,Medium,Medium,10 min,No",1,13365,"2021-10-07 15:49:11",3018,NA,1,NA,20,NA,5,2,4,NA,NA,NA,NA,NA,NA,NA,NA,2,818,NA,3,NA,10,NA,5,2,1,NA,NA,NA,NA,NA,NA,NA,NA,1,990,"18,6,8,2,7,4,17"
"201","59d1284e19d3170001b1d67c","ma_choice_v2_pilot1",NA,50,0,-1,-1,"Washer/Dryer,Proximity to Cafes/Restaurants,Age of Building,Proximity to Parks,Number of Bedrooms,Climate of Area,Size of Yard","No,10 min,Old,20 min,3,Bad,Small","Yes,10 min,Old,10 min,1,Very Bad,Small",1,8460,"2021-10-07 15:49:21",3026,3,NA,NA,20,NA,10,NA,NA,NA,1,1,2,NA,NA,2,NA,NA,NA,1,NA,NA,10,NA,10,NA,NA,NA,1,2,2,NA,NA,1,NA,NA,NA,"11,6,10,4,1,15,12"
"202","59d1284e19d3170001b1d67c","ma_choice_v2_pilot1",NA,51,0,-1,-1,"Noise Pollution,Climate of Area,Proximity to Waterfront/Beaches,Central AC,Proximity to Parks,Fireplace,Size of Yard","High,Very Bad,90 minutes,No,10 min,No,Small","Medium,Very Bad,60 min,No,10 min,No,Medium",1,14162,"2021-10-07 15:49:36",3037,NA,NA,NA,10,90,NA,3,NA,NA,NA,NA,2,1,1,1,NA,NA,NA,NA,NA,NA,10,60,NA,2,NA,NA,NA,NA,3,1,1,1,NA,NA,NA,"7,15,5,14,4,13,12"
"203","59d1284e19d3170001b1d67c","ma_choice_v2_pilot1",NA,52,0,-1,-1,"Central AC,Fireplace,Noise Pollution,Freshly Painted Exterior,Proximity to Cafes/Restaurants,Number of Bedrooms,Climate of Area","Yes,No,High,No,10 min,2,Bad","Yes,No,Medium,Yes,20 min,3,Very Bad",0,15480,"2021-10-07 15:49:52",3045,2,NA,NA,NA,NA,10,3,NA,NA,NA,NA,NA,1,2,2,NA,1,NA,3,NA,NA,NA,NA,20,2,NA,NA,NA,NA,NA,1,2,1,NA,2,NA,"14,13,7,17,6,1,15"
"204","59d1284e19d3170001b1d67c","ma_choice_v2_pilot1",NA,53,0,-1,-1,"Number of Bedrooms,Proximity to Parks,Size of Home,Size of Yard,Reputation of Closest School,Size of Garage,Washer/Dryer","3,20 min,1902 sq feet,Large,Moderate,Large,No","2,10 min,1228 sq feet,Small,Very Good,Small,No",0,21771,"2021-10-07 15:50:15",3058,3,4,NA,20,NA,NA,NA,3,NA,NA,1,4,NA,NA,NA,NA,NA,1902,2,2,NA,10,NA,NA,NA,5,NA,NA,1,2,NA,NA,NA,NA,NA,1228,"1,4,18,12,8,2,11"
"205","59d1284e19d3170001b1d67c","ma_choice_v2_pilot1",NA,54,0,-1,-1,"Central AC,Number of Bedrooms,Age of Building,Proximity to Cafes/Restaurants,Noise Pollution,Amount of Crime in Neighborhood,Size of Home","No,1,Old,20 min,Low,Moderate,462 sq feet","Yes,1,Medium,20 min,Low,Moderate,472 sq feet",1,13302,"2021-10-07 15:50:29",3066,1,NA,3,NA,NA,20,1,NA,NA,1,NA,NA,NA,1,NA,NA,NA,462,1,NA,3,NA,NA,20,1,NA,NA,2,NA,NA,NA,2,NA,NA,NA,472,"14,1,10,6,7,3,18"
"206","59d1284e19d3170001b1d67c","ma_choice_v2_pilot1",NA,55,0,-1,-1,"Proximity to Cafes/Restaurants,Number of Bedrooms,Proximity to Waterfront/Beaches,Noise Pollution,Proximity to Parks,Size of Garage,Amount of Natural Light","20 min,2,30 min,Medium,5 min,Large,Moderate natural light","10 min,3,90 minutes,Medium,5 min,Medium,Moderate natural light",1,9788,"2021-10-07 15:50:40",3069,2,4,NA,5,30,20,2,NA,3,NA,NA,NA,NA,NA,NA,NA,NA,NA,3,3,NA,5,90,10,2,NA,3,NA,NA,NA,NA,NA,NA,NA,NA,NA,"6,1,5,7,4,2,9"
"207","59d1284e19d3170001b1d67c","ma_choice_v2_pilot1",NA,56,0,-1,-1,"Proximity to Waterfront/Beaches,Fireplace,Climate of Area,Proximity to Cafes/Restaurants,Amount of Crime in Neighborhood,Reputation of Closest School,Size of Yard","60 min,No,Very Good,10 min,Moderate,Good,Medium","10 min,No,Good,10 min,Very Low,Moderate,Small",1,7871,"2021-10-07 15:50:49",3075,NA,NA,3,NA,60,10,NA,4,NA,NA,NA,3,1,NA,5,NA,NA,NA,NA,NA,1,NA,10,10,NA,3,NA,NA,NA,2,1,NA,4,NA,NA,NA,"5,13,15,6,3,8,12"
"208","59d1284e19d3170001b1d67c","ma_choice_v2_pilot1",NA,57,0,-1,-1,"Reputation of Closest School,Size of Yard,Climate of Area,Number of Bedrooms,Amount of Crime in Neighborhood,Amount of Natural Light,Size of Garage","Bad,Large,Good,1,Very Low,A little natural light,Medium","Bad,Medium,Bad,1,High,Moderate natural light,Medium",0,7071,"2021-10-07 15:50:57",3080,1,3,1,NA,NA,NA,NA,2,2,NA,NA,4,NA,NA,4,NA,NA,NA,1,3,4,NA,NA,NA,NA,2,3,NA,NA,3,NA,NA,2,NA,NA,NA,"8,12,15,1,3,9,2"
"209","59d1284e19d3170001b1d67c","ma_choice_v2_pilot1",NA,58,0,-1,-1,"Proximity to Waterfront/Beaches,Freshly Painted Exterior,Size of Home,Reputation of Closest School,Amount of Crime in Neighborhood,Proximity to Cafes/Restaurants,Hardwood Floors","60 min,No,1689 sq feet,Moderate,High,20 min,No","120 minutes,No,537 sq feet,Bad,High,20 min,Yes",0,17741,"2021-10-07 15:51:16",3091,NA,NA,4,NA,60,20,NA,3,NA,NA,NA,NA,NA,NA,NA,1,1,1689,NA,NA,4,NA,120,20,NA,2,NA,NA,NA,NA,NA,NA,NA,2,1,537,"5,17,18,8,3,6,16"
"210","59d1284e19d3170001b1d67c","ma_choice_v2_pilot1",NA,59,0,-1,-1,"Noise Pollution,Number of Bedrooms,Amount of Crime in Neighborhood,Central AC,Size of Home,Amount of Natural Light,Freshly Painted Exterior","Medium,1,Very High,Yes,1922 sq feet,A lot of natural light,Yes","High,1,Very Low,Yes,1814 sq feet,A little natural light,Yes",1,11133,"2021-10-07 15:51:28",3099,1,NA,5,NA,NA,NA,2,NA,4,NA,NA,NA,NA,2,NA,NA,2,1922,1,NA,1,NA,NA,NA,3,NA,2,NA,NA,NA,NA,2,NA,NA,2,1814,"7,1,3,14,18,9,17"
"211","59d1284e19d3170001b1d67c","ma_choice_v2_pilot1",NA,60,0,-1,-1,"Proximity to Waterfront/Beaches,Number of Bedrooms,Washer/Dryer,Central AC,Proximity to Parks,Freshly Painted Exterior,Size of Home","90 minutes,1,No,Yes,5 min,Yes,753 sq feet","90 minutes,2,No,Yes,5 min,Yes,1739 sq feet",1,21559,"2021-10-07 15:51:50",3111,1,NA,NA,5,90,NA,NA,NA,NA,NA,1,NA,NA,2,NA,NA,2,753,2,NA,NA,5,90,NA,NA,NA,NA,NA,1,NA,NA,2,NA,NA,2,1739,"5,1,11,14,4,17,18"
"212","59d1284e19d3170001b1d67c","ma_choice_v2_pilot1",NA,61,0,-1,-1,"Age of Building,Washer/Dryer,Proximity to Waterfront/Beaches,Proximity to Cafes/Restaurants,Reputation of Closest School,Size of Garage,Climate of Area","Old,No,30 min,20 min,Very Bad,None,Moderate","Medium,Yes,120 minutes,5 min,Moderate,Small,Very Bad",0,112850,"2021-10-07 15:53:44",3161,NA,1,NA,NA,30,20,NA,1,NA,1,1,NA,NA,NA,3,NA,NA,NA,NA,2,NA,NA,120,5,NA,3,NA,2,2,NA,NA,NA,1,NA,NA,NA,"10,11,5,6,8,2,15"
"213","59d1284e19d3170001b1d67c","ma_choice_v2_pilot1",NA,62,0,-1,-1,"Size of Home,Hardwood Floors,Proximity to Parks,Proximity to Waterfront/Beaches,Fireplace,Central AC,Noise Pollution","1212 sq feet,Yes,20 min,90 minutes,Yes,No,Medium","1732 sq feet,Yes,5 min,60 min,Yes,No,Low",1,11806,"2021-10-07 15:53:57",3167,NA,NA,NA,20,90,NA,2,NA,NA,NA,NA,NA,2,1,NA,2,NA,1212,NA,NA,NA,5,60,NA,1,NA,NA,NA,NA,NA,2,1,NA,2,NA,1732,"18,16,4,5,13,14,7"
"214","59d1284e19d3170001b1d67c","ma_choice_v2_pilot1",NA,63,0,-1,-1,"Freshly Painted Exterior,Size of Yard,Climate of Area,Size of Garage,Noise Pollution,Fireplace,Number of Bedrooms","No,Small,Moderate,Large,Medium,No,1","No,Small,Moderate,Small,Medium,Yes,3",1,27958,"2021-10-07 15:54:26",3180,1,4,NA,NA,NA,NA,2,NA,NA,NA,NA,2,1,NA,3,NA,1,NA,3,2,NA,NA,NA,NA,2,NA,NA,NA,NA,2,2,NA,3,NA,1,NA,"17,12,15,2,7,13,1"
"215","59d1284e19d3170001b1d67c","ma_choice_v2_pilot1",NA,64,0,-1,-1,"Central AC,Amount of Crime in Neighborhood,Size of Yard,Washer/Dryer,Size of Garage,Age of Building,Freshly Painted Exterior","No,Very High,Large,No,None,Old,No","Yes,Moderate,Large,No,Small,New,Yes",1,8019,"2021-10-07 15:54:35",3186,NA,1,5,NA,NA,NA,NA,NA,NA,1,1,4,NA,1,NA,NA,1,NA,NA,2,3,NA,NA,NA,NA,NA,NA,3,1,4,NA,2,NA,NA,2,NA,"14,3,12,11,2,10,17"
