subject,version,assignmentId,trial,practice,opt1_id,opt2_id,attributes,opt1_values,opt2_values,choice,rt,stamp,id
5e1c6eb807951345dc242ef4,ma_choice_v2_pilot1,"",0,1,-1,-1,"Amount of Crime in Neighborhood,Size of Yard,Hardwood Floors,Proximity to Cafes/Restaurants,Age of Building,Freshly Painted Exterior,Fireplace","Moderate,Medium,Yes,20 min,Old,No,No","Very High,None,No,20 min,Medium,Yes,Yes",0,15350,2021-10-07 14:46:39,1737
5e1c6eb807951345dc242ef4,ma_choice_v2_pilot1,"",1,1,-1,-1,"Reputation of Closest School,Size of Yard,Washer/Dryer,Amount of Natural Light,Central AC,Climate of Area,Number of Bedrooms","Very Good,Medium,No,A lot of natural light,No,Moderate,1","Very Bad,Small,No,Moderate natural light,No,Bad,1",0,13145,2021-10-07 14:46:53,1738
5e1c6eb807951345dc242ef4,ma_choice_v2_pilot1,"",2,1,-1,-1,"Noise Pollution,Proximity to Cafes/Restaurants,Size of Home,Hardwood Floors,Proximity to Waterfront/Beaches,Washer/Dryer,Climate of Area","High,20 min,1445 sq feet,No,30 min,Yes,Bad","Low,5 min,531 sq feet,No,10 min,No,Very Good",1,8926,2021-10-07 14:47:03,1739
5e1c6eb807951345dc242ef4,ma_choice_v2_pilot1,"",3,1,-1,-1,"Amount of Crime in Neighborhood,Central AC,Fireplace,Washer/Dryer,Proximity to Waterfront/Beaches,Climate of Area,Freshly Painted Exterior","Moderate,No,Yes,No,120 minutes,Very Bad,Yes","Very High,Yes,Yes,No,10 min,Very Bad,No",1,14371,2021-10-07 14:47:19,1740
5e1c6eb807951345dc242ef4,ma_choice_v2_pilot1,"",4,1,-1,-1,"Number of Bedrooms,Proximity to Cafes/Restaurants,Age of Building,Climate of Area,Fireplace,Hardwood Floors,Noise Pollution","1,5 min,Old,Very Bad,No,No,Low","1,10 min,New,Bad,Yes,No,Low",0,12198,2021-10-07 14:47:32,1741
5e1c6eb807951345dc242ef4,ma_choice_v2_pilot1,"",5,1,-1,-1,"Climate of Area,Reputation of Closest School,Noise Pollution,Proximity to Parks,Amount of Natural Light,Amount of Crime in Neighborhood,Freshly Painted Exterior","Bad,Bad,Low,20 min,Moderate natural light,High,Yes","Bad,Very Bad,High,10 min,Moderate natural light,Moderate,Yes",1,18329,2021-10-07 14:47:51,1742
5e1c6eb807951345dc242ef4,ma_choice_v2_pilot1,"",6,1,-1,-1,"Climate of Area,Amount of Crime in Neighborhood,Amount of Natural Light,Age of Building,Proximity to Waterfront/Beaches,Reputation of Closest School,Size of Yard","Very Bad,Low,Moderate natural light,Medium,10 min,Moderate,Small","Moderate,Very High,Moderate natural light,Medium,30 min,Moderate,Medium",0,13761,2021-10-07 14:48:06,1743
5e1c6eb807951345dc242ef4,ma_choice_v2_pilot1,"",7,1,-1,-1,"Freshly Painted Exterior,Reputation of Closest School,Size of Home,Proximity to Waterfront/Beaches,Proximity to Cafes/Restaurants,Amount of Crime in Neighborhood,Number of Bedrooms","No,Very Bad,1332 sq feet,10 min,5 min,Moderate,1","No,Very Bad,1863 sq feet,10 min,20 min,High,1",0,10969,2021-10-07 14:48:18,1744
5e1c6eb807951345dc242ef4,ma_choice_v2_pilot1,"",8,1,-1,-1,"Noise Pollution,Size of Home,Proximity to Cafes/Restaurants,Number of Bedrooms,Reputation of Closest School,Age of Building,Fireplace","Low,1439 sq feet,10 min,3,Bad,New,Yes","Low,1025 sq feet,20 min,3,Bad,New,No",0,11564,2021-10-07 14:48:31,1745
5e1c6eb807951345dc242ef4,ma_choice_v2_pilot1,"",9,1,-1,-1,"Central AC,Age of Building,Hardwood Floors,Fireplace,Proximity to Cafes/Restaurants,Amount of Crime in Neighborhood,Size of Garage","No,New,No,No,20 min,Very Low,Small","No,Medium,No,No,20 min,Very High,Medium",1,13201,2021-10-07 14:48:45,1746
5e1c6eb807951345dc242ef4,ma_choice_v2_pilot1,"",0,0,-1,-1,"Central AC,Reputation of Closest School,Number of Bedrooms,Size of Home,Size of Yard,Washer/Dryer,Fireplace","Yes,Good,2,1179 sq feet,Small,Yes,No","No,Moderate,3,1706 sq feet,Large,Yes,Yes",1,10533,2021-10-07 14:49:16,1747
5e1c6eb807951345dc242ef4,ma_choice_v2_pilot1,"",1,0,-1,-1,"Size of Yard,Proximity to Waterfront/Beaches,Noise Pollution,Proximity to Cafes/Restaurants,Size of Home,Age of Building,Central AC","None,120 minutes,Medium,20 min,1474 sq feet,Medium,Yes","Small,60 min,High,5 min,543 sq feet,New,Yes",0,10013,2021-10-07 14:49:27,1748
5e1c6eb807951345dc242ef4,ma_choice_v2_pilot1,"",2,0,-1,-1,"Amount of Crime in Neighborhood,Proximity to Cafes/Restaurants,Size of Garage,Proximity to Parks,Fireplace,Washer/Dryer,Noise Pollution","Low,10 min,Medium,10 min,Yes,No,High","Very Low,5 min,Small,10 min,No,No,Low",1,16938,2021-10-07 14:49:45,1749
5e1c6eb807951345dc242ef4,ma_choice_v2_pilot1,"",3,0,-1,-1,"Climate of Area,Amount of Natural Light,Size of Garage,Hardwood Floors,Proximity to Cafes/Restaurants,Fireplace,Reputation of Closest School","Bad,No natural light,None,Yes,20 min,No,Good","Very Bad,A lot of natural light,Small,No,10 min,Yes,Very Good",1,7878,2021-10-07 14:49:54,1750
5e1c6eb807951345dc242ef4,ma_choice_v2_pilot1,"",4,0,-1,-1,"Proximity to Waterfront/Beaches,Washer/Dryer,Climate of Area,Size of Home,Amount of Crime in Neighborhood,Age of Building,Size of Garage","10 min,Yes,Moderate,947 sq feet,Low,Old,None","60 min,No,Very Good,1074 sq feet,Low,Medium,None",0,8301,2021-10-07 14:50:03,1751
5e1c6eb807951345dc242ef4,ma_choice_v2_pilot1,"",5,0,-1,-1,"Fireplace,Amount of Natural Light,Size of Yard,Proximity to Parks,Age of Building,Freshly Painted Exterior,Hardwood Floors","No,No natural light,None,10 min,Medium,Yes,No","No,A little natural light,Large,20 min,Medium,Yes,Yes",1,7977,2021-10-07 14:50:12,1752
5e1c6eb807951345dc242ef4,ma_choice_v2_pilot1,"",6,0,-1,-1,"Amount of Crime in Neighborhood,Number of Bedrooms,Amount of Natural Light,Proximity to Waterfront/Beaches,Size of Yard,Fireplace,Reputation of Closest School","High,2,No natural light,10 min,None,Yes,Good","Moderate,3,Moderate natural light,90 minutes,Small,No,Bad",1,8033,2021-10-07 14:50:21,1753
5e7cd5fbbb2c2c33153d372c,ma_choice_v2_pilot1,"",0,1,-1,-1,"Amount of Crime in Neighborhood,Size of Home,Age of Building,Washer/Dryer,Proximity to Cafes/Restaurants,Proximity to Waterfront/Beaches,Reputation of Closest School","Moderate,1318 sq feet,Medium,Yes,5 min,10 min,Good","Very High,839 sq feet,Medium,Yes,20 min,30 min,Moderate",0,24776,2021-10-07 14:50:22,1754
5e1c6eb807951345dc242ef4,ma_choice_v2_pilot1,"",7,0,-1,-1,"Reputation of Closest School,Amount of Natural Light,Hardwood Floors,Size of Yard,Fireplace,Amount of Crime in Neighborhood,Freshly Painted Exterior","Good,A lot of natural light,No,None,No,High,Yes","Moderate,A little natural light,Yes,None,No,Low,No",0,8943,2021-10-07 14:50:31,1755
5e1c6eb807951345dc242ef4,ma_choice_v2_pilot1,"",8,0,-1,-1,"Climate of Area,Hardwood Floors,Size of Home,Amount of Crime in Neighborhood,Size of Yard,Fireplace,Noise Pollution","Moderate,Yes,605 sq feet,High,Medium,Yes,Low","Very Bad,No,1205 sq feet,Very Low,Medium,No,Medium",0,15347,2021-10-07 14:50:48,1756
5e7cd5fbbb2c2c33153d372c,ma_choice_v2_pilot1,"",1,1,-1,-1,"Size of Yard,Climate of Area,Size of Garage,Washer/Dryer,Proximity to Waterfront/Beaches,Fireplace,Central AC","None,Moderate,Medium,No,90 minutes,Yes,No","Small,Bad,Large,No,10 min,Yes,Yes",1,25085,2021-10-07 14:50:48,1757
5e1c6eb807951345dc242ef4,ma_choice_v2_pilot1,"",9,0,-1,-1,"Age of Building,Size of Home,Noise Pollution,Washer/Dryer,Size of Yard,Hardwood Floors,Amount of Crime in Neighborhood","Old,880 sq feet,High,No,Large,Yes,Moderate","Medium,554 sq feet,Medium,No,Medium,Yes,High",0,8238,2021-10-07 14:50:57,1758
5e1c6eb807951345dc242ef4,ma_choice_v2_pilot1,"",10,0,-1,-1,"Freshly Painted Exterior,Reputation of Closest School,Proximity to Cafes/Restaurants,Number of Bedrooms,Central AC,Amount of Natural Light,Amount of Crime in Neighborhood","No,Very Bad,20 min,2,No,No natural light,Moderate","Yes,Very Bad,20 min,2,No,No natural light,Very High",0,14211,2021-10-07 14:51:12,1759
5e7cd5fbbb2c2c33153d372c,ma_choice_v2_pilot1,"",2,1,-1,-1,"Fireplace,Size of Garage,Noise Pollution,Hardwood Floors,Size of Yard,Number of Bedrooms,Proximity to Parks","No,Small,Medium,Yes,None,3,5 min","Yes,Small,Low,No,Small,2,10 min",1,24021,2021-10-07 14:51:13,1760
5e1c6eb807951345dc242ef4,ma_choice_v2_pilot1,"",11,0,-1,-1,"Freshly Painted Exterior,Size of Yard,Proximity to Parks,Size of Garage,Climate of Area,Washer/Dryer,Number of Bedrooms","No,Medium,20 min,None,Moderate,Yes,2","No,Small,10 min,None,Moderate,No,3",1,12319,2021-10-07 14:51:25,1761
5e1c6eb807951345dc242ef4,ma_choice_v2_pilot1,"",12,0,-1,-1,"Proximity to Waterfront/Beaches,Central AC,Washer/Dryer,Number of Bedrooms,Noise Pollution,Reputation of Closest School,Freshly Painted Exterior","30 min,Yes,No,1,High,Very Bad,Yes","90 minutes,No,No,3,Low,Good,No",0,7891,2021-10-07 14:51:34,1762
5e7cd5fbbb2c2c33153d372c,ma_choice_v2_pilot1,"",3,1,-1,-1,"Number of Bedrooms,Climate of Area,Size of Yard,Proximity to Parks,Size of Home,Amount of Crime in Neighborhood,Hardwood Floors","3,Very Good,Small,20 min,834 sq feet,Very Low,Yes","1,Very Bad,Small,10 min,1991 sq feet,Very High,Yes",0,21032,2021-10-07 14:51:35,1763
5e1c6eb807951345dc242ef4,ma_choice_v2_pilot1,"",13,0,-1,-1,"Amount of Crime in Neighborhood,Number of Bedrooms,Climate of Area,Freshly Painted Exterior,Size of Home,Proximity to Waterfront/Beaches,Fireplace","Low,1,Moderate,No,1542 sq feet,30 min,Yes","Moderate,1,Bad,No,1699 sq feet,120 minutes,Yes",0,8788,2021-10-07 14:51:44,1764
5e7cd5fbbb2c2c33153d372c,ma_choice_v2_pilot1,"",4,1,-1,-1,"Fireplace,Age of Building,Washer/Dryer,Proximity to Parks,Amount of Natural Light,Proximity to Cafes/Restaurants,Climate of Area","Yes,New,No,10 min,A lot of natural light,10 min,Good","Yes,Medium,No,5 min,No natural light,20 min,Very Good",0,15763,2021-10-07 14:51:52,1765
5e1c6eb807951345dc242ef4,ma_choice_v2_pilot1,"",14,0,-1,-1,"Size of Yard,Hardwood Floors,Noise Pollution,Proximity to Parks,Age of Building,Number of Bedrooms,Central AC","None,No,Low,20 min,Medium,1,No","Medium,Yes,Medium,20 min,Old,3,Yes",1,9762,2021-10-07 14:51:55,1766
5e1c6eb807951345dc242ef4,ma_choice_v2_pilot1,"",15,0,-1,-1,"Number of Bedrooms,Reputation of Closest School,Size of Yard,Amount of Natural Light,Washer/Dryer,Hardwood Floors,Proximity to Parks","2,Bad,Large,A lot of natural light,No,Yes,20 min","1,Moderate,Large,A little natural light,Yes,Yes,20 min",0,8009,2021-10-07 14:52:04,1767
5e7cd5fbbb2c2c33153d372c,ma_choice_v2_pilot1,"",5,1,-1,-1,"Freshly Painted Exterior,Proximity to Waterfront/Beaches,Fireplace,Amount of Crime in Neighborhood,Climate of Area,Hardwood Floors,Proximity to Cafes/Restaurants","No,30 min,Yes,Moderate,Bad,Yes,5 min","Yes,10 min,Yes,High,Very Good,Yes,20 min",0,21534,2021-10-07 14:52:15,1768
5e1c6eb807951345dc242ef4,ma_choice_v2_pilot1,"",16,0,-1,-1,"Hardwood Floors,Reputation of Closest School,Proximity to Cafes/Restaurants,Fireplace,Amount of Crime in Neighborhood,Central AC,Size of Home","No,Very Bad,20 min,No,Low,No,1627 sq feet","No,Moderate,10 min,No,Very Low,No,1754 sq feet",1,13609,2021-10-07 14:52:19,1769
5e7cd5fbbb2c2c33153d372c,ma_choice_v2_pilot1,"",6,1,-1,-1,"Size of Yard,Amount of Crime in Neighborhood,Washer/Dryer,Climate of Area,Size of Home,Number of Bedrooms,Proximity to Cafes/Restaurants","Large,Very Low,No,Very Bad,979 sq feet,1,20 min","None,Very High,Yes,Very Good,1306 sq feet,1,10 min",0,12267,2021-10-07 14:52:28,1770
5e1c6eb807951345dc242ef4,ma_choice_v2_pilot1,"",17,0,-1,-1,"Size of Yard,Proximity to Parks,Amount of Crime in Neighborhood,Size of Home,Freshly Painted Exterior,Washer/Dryer,Age of Building","Large,5 min,Low,1297 sq feet,Yes,Yes,New","Small,10 min,Moderate,1968 sq feet,Yes,Yes,New",0,11902,2021-10-07 14:52:31,1771
5e7cd5fbbb2c2c33153d372c,ma_choice_v2_pilot1,"",7,1,-1,-1,"Proximity to Parks,Central AC,Size of Home,Amount of Crime in Neighborhood,Proximity to Cafes/Restaurants,Size of Yard,Hardwood Floors","5 min,Yes,1882 sq feet,High,20 min,Medium,No","20 min,Yes,1592 sq feet,Moderate,10 min,Large,No",1,11555,2021-10-07 14:52:40,1772
5e1c6eb807951345dc242ef4,ma_choice_v2_pilot1,"",18,0,-1,-1,"Amount of Natural Light,Fireplace,Proximity to Parks,Amount of Crime in Neighborhood,Freshly Painted Exterior,Noise Pollution,Climate of Area","A lot of natural light,No,10 min,Very High,Yes,Medium,Very Good","Moderate natural light,Yes,5 min,Very Low,No,High,Very Bad",0,8116,2021-10-07 14:52:41,1773
5e1c6eb807951345dc242ef4,ma_choice_v2_pilot1,"",19,0,-1,-1,"Reputation of Closest School,Freshly Painted Exterior,Noise Pollution,Washer/Dryer,Proximity to Waterfront/Beaches,Proximity to Parks,Age of Building","Bad,No,Low,No,30 min,10 min,Old","Moderate,Yes,High,Yes,90 minutes,5 min,New",0,7751,2021-10-07 14:52:49,1774
5e7cd5fbbb2c2c33153d372c,ma_choice_v2_pilot1,"",8,1,-1,-1,"Amount of Crime in Neighborhood,Proximity to Cafes/Restaurants,Washer/Dryer,Hardwood Floors,Amount of Natural Light,Size of Yard,Number of Bedrooms","Moderate,20 min,Yes,No,No natural light,Large,3","Low,20 min,No,Yes,A lot of natural light,Small,1",1,10618,2021-10-07 14:52:52,1775
5e1c6eb807951345dc242ef4,ma_choice_v2_pilot1,"",20,0,-1,-1,"Hardwood Floors,Size of Garage,Washer/Dryer,Size of Home,Reputation of Closest School,Age of Building,Proximity to Parks","No,Medium,Yes,1050 sq feet,Good,New,20 min","No,Large,Yes,1325 sq feet,Bad,Medium,20 min",1,11300,2021-10-07 14:53:02,1776
5e1c6eb807951345dc242ef4,ma_choice_v2_pilot1,"",21,0,-1,-1,"Hardwood Floors,Size of Garage,Central AC,Amount of Natural Light,Noise Pollution,Amount of Crime in Neighborhood,Climate of Area","Yes,Small,No,A lot of natural light,Medium,Very High,Moderate","Yes,Large,No,Moderate natural light,Low,Moderate,Very Good",0,8268,2021-10-07 14:53:11,1777
5e7cd5fbbb2c2c33153d372c,ma_choice_v2_pilot1,"",9,1,-1,-1,"Proximity to Waterfront/Beaches,Size of Yard,Freshly Painted Exterior,Number of Bedrooms,Proximity to Cafes/Restaurants,Central AC,Reputation of Closest School","120 minutes,None,No,3,5 min,No,Very Bad","90 minutes,Small,Yes,3,20 min,No,Moderate",1,18845,2021-10-07 14:53:12,1778
5e1c6eb807951345dc242ef4,ma_choice_v2_pilot1,"",22,0,-1,-1,"Amount of Crime in Neighborhood,Size of Garage,Climate of Area,Age of Building,Freshly Painted Exterior,Fireplace,Proximity to Parks","Very High,Large,Bad,New,No,No,10 min","Very High,Medium,Good,New,Yes,Yes,10 min",1,13139,2021-10-07 14:53:25,1779
5e1c6eb807951345dc242ef4,ma_choice_v2_pilot1,"",23,0,-1,-1,"Proximity to Waterfront/Beaches,Freshly Painted Exterior,Age of Building,Size of Garage,Noise Pollution,Proximity to Parks,Fireplace","120 minutes,Yes,Old,Large,Medium,5 min,Yes","120 minutes,No,New,Large,Low,10 min,No",0,9209,2021-10-07 14:53:35,1780
5e1c6eb807951345dc242ef4,ma_choice_v2_pilot1,"",24,0,-1,-1,"Amount of Natural Light,Amount of Crime in Neighborhood,Fireplace,Reputation of Closest School,Hardwood Floors,Freshly Painted Exterior,Proximity to Cafes/Restaurants","No natural light,Low,Yes,Very Bad,No,No,5 min","A lot of natural light,Very High,Yes,Good,Yes,Yes,20 min",1,8080,2021-10-07 14:53:44,1781
5e7cd5fbbb2c2c33153d372c,ma_choice_v2_pilot1,"",0,0,-1,-1,"Fireplace,Proximity to Cafes/Restaurants,Hardwood Floors,Proximity to Waterfront/Beaches,Size of Home,Central AC,Amount of Natural Light","Yes,20 min,No,60 min,1810 sq feet,No,A little natural light","No,10 min,No,30 min,1424 sq feet,Yes,A lot of natural light",1,18850,2021-10-07 14:53:46,1782
5e1c6eb807951345dc242ef4,ma_choice_v2_pilot1,"",25,0,-1,-1,"Amount of Natural Light,Proximity to Waterfront/Beaches,Size of Yard,Hardwood Floors,Amount of Crime in Neighborhood,Age of Building,Noise Pollution","No natural light,90 minutes,Large,No,Very Low,Old,Medium","A little natural light,90 minutes,Large,No,Moderate,Old,Medium",1,7957,2021-10-07 14:53:53,1783
5e7cd5fbbb2c2c33153d372c,ma_choice_v2_pilot1,"",1,0,-1,-1,"Hardwood Floors,Freshly Painted Exterior,Size of Garage,Reputation of Closest School,Proximity to Cafes/Restaurants,Age of Building,Fireplace","Yes,Yes,Small,Very Good,5 min,New,No","Yes,No,Large,Very Bad,10 min,New,Yes",1,15838,2021-10-07 14:54:03,1784
5e1c6eb807951345dc242ef4,ma_choice_v2_pilot1,"",26,0,-1,-1,"Number of Bedrooms,Freshly Painted Exterior,Noise Pollution,Amount of Crime in Neighborhood,Central AC,Size of Yard,Size of Garage","3,No,High,Very Low,No,None,Medium","1,Yes,Medium,Very High,No,Medium,Large",0,13640,2021-10-07 14:54:08,1785
5e1c6eb807951345dc242ef4,ma_choice_v2_pilot1,"",27,0,-1,-1,"Climate of Area,Washer/Dryer,Proximity to Cafes/Restaurants,Proximity to Waterfront/Beaches,Number of Bedrooms,Hardwood Floors,Age of Building","Very Bad,Yes,5 min,120 minutes,2,No,New","Very Good,Yes,10 min,10 min,3,No,Old",1,7744,2021-10-07 14:54:17,1786
5e7cd5fbbb2c2c33153d372c,ma_choice_v2_pilot1,"",2,0,-1,-1,"Size of Garage,Amount of Natural Light,Proximity to Parks,Proximity to Cafes/Restaurants,Noise Pollution,Fireplace,Climate of Area","Large,A little natural light,20 min,10 min,Low,No,Moderate","None,A little natural light,5 min,5 min,High,Yes,Bad",0,16372,2021-10-07 14:54:20,1787
5e1c6eb807951345dc242ef4,ma_choice_v2_pilot1,"",28,0,-1,-1,"Reputation of Closest School,Washer/Dryer,Hardwood Floors,Proximity to Cafes/Restaurants,Amount of Natural Light,Freshly Painted Exterior,Proximity to Parks","Very Good,No,Yes,20 min,A lot of natural light,No,5 min","Moderate,No,Yes,10 min,A little natural light,Yes,5 min",0,7741,2021-10-07 14:54:25,1788
5e1c6eb807951345dc242ef4,ma_choice_v2_pilot1,"",29,0,-1,-1,"Amount of Crime in Neighborhood,Hardwood Floors,Size of Home,Proximity to Waterfront/Beaches,Freshly Painted Exterior,Reputation of Closest School,Fireplace","Low,Yes,1288 sq feet,10 min,Yes,Very Good,No","Very High,No,1411 sq feet,30 min,No,Bad,No",0,7873,2021-10-07 14:54:34,1789
5e7cd5fbbb2c2c33153d372c,ma_choice_v2_pilot1,"",3,0,-1,-1,"Proximity to Cafes/Restaurants,Proximity to Waterfront/Beaches,Reputation of Closest School,Fireplace,Central AC,Amount of Crime in Neighborhood,Hardwood Floors","5 min,60 min,Very Bad,Yes,Yes,Very High,No","20 min,30 min,Very Bad,Yes,Yes,High,Yes",1,16388,2021-10-07 14:54:37,1790
5e1c6eb807951345dc242ef4,ma_choice_v2_pilot1,"",30,0,-1,-1,"Size of Yard,Noise Pollution,Proximity to Parks,Number of Bedrooms,Size of Garage,Fireplace,Freshly Painted Exterior","Medium,High,20 min,2,None,No,No","Medium,High,5 min,3,Medium,Yes,Yes",1,12992,2021-10-07 14:54:48,1791
5e7cd5fbbb2c2c33153d372c,ma_choice_v2_pilot1,"",4,0,-1,-1,"Hardwood Floors,Amount of Crime in Neighborhood,Freshly Painted Exterior,Size of Yard,Amount of Natural Light,Age of Building,Central AC","No,Very Low,Yes,Small,A little natural light,New,No","No,Very Low,No,None,Moderate natural light,Old,Yes",1,13312,2021-10-07 14:54:52,1792
5e1c6eb807951345dc242ef4,ma_choice_v2_pilot1,"",31,0,-1,-1,"Reputation of Closest School,Washer/Dryer,Age of Building,Amount of Crime in Neighborhood,Proximity to Cafes/Restaurants,Amount of Natural Light,Hardwood Floors","Bad,No,New,Low,10 min,A little natural light,No","Very Good,Yes,Medium,Very High,5 min,Moderate natural light,No",1,7806,2021-10-07 14:54:57,1793
5e1c6eb807951345dc242ef4,ma_choice_v2_pilot1,"",32,0,-1,-1,"Size of Garage,Proximity to Parks,Noise Pollution,Freshly Painted Exterior,Washer/Dryer,Amount of Crime in Neighborhood,Amount of Natural Light","None,5 min,Medium,No,Yes,Low,Moderate natural light","Large,10 min,High,Yes,No,High,No natural light",0,7687,2021-10-07 14:55:06,1794
5e7cd5fbbb2c2c33153d372c,ma_choice_v2_pilot1,"",5,0,-1,-1,"Amount of Crime in Neighborhood,Proximity to Waterfront/Beaches,Central AC,Size of Garage,Proximity to Parks,Fireplace,Hardwood Floors","Low,30 min,No,None,10 min,No,Yes","Low,90 minutes,Yes,Small,20 min,No,Yes",1,18425,2021-10-07 14:55:11,1795
5e7cd5fbbb2c2c33153d372c,ma_choice_v2_pilot1,"",6,0,-1,-1,"Proximity to Cafes/Restaurants,Reputation of Closest School,Amount of Crime in Neighborhood,Size of Home,Amount of Natural Light,Washer/Dryer,Hardwood Floors","10 min,Good,Moderate,981 sq feet,A little natural light,No,No","20 min,Bad,Moderate,1458 sq feet,A little natural light,Yes,No",1,10960,2021-10-07 14:55:23,1796
5e1c6eb807951345dc242ef4,ma_choice_v2_pilot1,"",33,0,-1,-1,"Number of Bedrooms,Reputation of Closest School,Size of Garage,Noise Pollution,Fireplace,Washer/Dryer,Central AC","3,Bad,None,Medium,No,Yes,Yes","3,Bad,Small,Medium,No,Yes,No",1,28724,2021-10-07 14:55:36,1797
5e7cd5fbbb2c2c33153d372c,ma_choice_v2_pilot1,"",7,0,-1,-1,"Hardwood Floors,Proximity to Parks,Climate of Area,Proximity to Cafes/Restaurants,Fireplace,Noise Pollution,Number of Bedrooms","Yes,10 min,Good,10 min,No,Medium,3","Yes,10 min,Very Bad,20 min,Yes,Medium,3",0,12111,2021-10-07 14:55:36,1798
5e1c6eb807951345dc242ef4,ma_choice_v2_pilot1,"",34,0,-1,-1,"Freshly Painted Exterior,Number of Bedrooms,Proximity to Cafes/Restaurants,Size of Yard,Climate of Area,Size of Garage,Fireplace","No,2,5 min,Large,Moderate,None,No","Yes,3,20 min,Large,Good,Medium,No",0,10145,2021-10-07 14:55:47,1799
5e7cd5fbbb2c2c33153d372c,ma_choice_v2_pilot1,"",8,0,-1,-1,"Central AC,Number of Bedrooms,Size of Yard,Fireplace,Amount of Natural Light,Size of Garage,Age of Building","Yes,2,Large,No,A lot of natural light,None,New","Yes,3,None,Yes,A lot of natural light,Medium,Medium",0,17783,2021-10-07 14:55:55,1800
5e1c6eb807951345dc242ef4,ma_choice_v2_pilot1,"",35,0,-1,-1,"Age of Building,Amount of Crime in Neighborhood,Central AC,Hardwood Floors,Climate of Area,Reputation of Closest School,Proximity to Parks","Old,Low,Yes,No,Good,Good,10 min","Medium,Very High,Yes,Yes,Moderate,Moderate,5 min",0,18113,2021-10-07 14:56:06,1801
5e7cd5fbbb2c2c33153d372c,ma_choice_v2_pilot1,"",9,0,-1,-1,"Amount of Crime in Neighborhood,Proximity to Parks,Amount of Natural Light,Washer/Dryer,Central AC,Size of Home,Reputation of Closest School","Moderate,5 min,Moderate natural light,No,No,598 sq feet,Bad","Very Low,5 min,A little natural light,Yes,No,933 sq feet,Moderate",0,16234,2021-10-07 14:56:12,1802
5e1c6eb807951345dc242ef4,ma_choice_v2_pilot1,"",36,0,-1,-1,"Size of Home,Age of Building,Noise Pollution,Number of Bedrooms,Proximity to Waterfront/Beaches,Central AC,Washer/Dryer","1393 sq feet,Medium,High,2,30 min,No,Yes","794 sq feet,New,Low,2,90 minutes,Yes,No",0,9096,2021-10-07 14:56:16,1803
5e7cd5fbbb2c2c33153d372c,ma_choice_v2_pilot1,"",10,0,-1,-1,"Proximity to Waterfront/Beaches,Proximity to Parks,Fireplace,Freshly Painted Exterior,Central AC,Amount of Crime in Neighborhood,Washer/Dryer","30 min,5 min,Yes,No,Yes,Very Low,No","60 min,20 min,Yes,No,No,Moderate,No",0,11205,2021-10-07 14:56:24,1804
5e1c6eb807951345dc242ef4,ma_choice_v2_pilot1,"",37,0,-1,-1,"Age of Building,Reputation of Closest School,Climate of Area,Washer/Dryer,Central AC,Hardwood Floors,Number of Bedrooms","Medium,Very Good,Very Good,Yes,No,Yes,3","Medium,Bad,Very Good,Yes,Yes,No,1",0,9466,2021-10-07 14:56:26,1805
5e7cd5fbbb2c2c33153d372c,ma_choice_v2_pilot1,"",11,0,-1,-1,"Proximity to Parks,Washer/Dryer,Reputation of Closest School,Number of Bedrooms,Freshly Painted Exterior,Central AC,Hardwood Floors","5 min,Yes,Very Bad,3,Yes,No,Yes","20 min,Yes,Very Good,3,Yes,No,Yes",0,12559,2021-10-07 14:56:38,1806
5e1c6eb807951345dc242ef4,ma_choice_v2_pilot1,"",38,0,-1,-1,"Proximity to Cafes/Restaurants,Hardwood Floors,Central AC,Number of Bedrooms,Proximity to Parks,Amount of Crime in Neighborhood,Amount of Natural Light","5 min,No,No,2,5 min,Moderate,No natural light","10 min,No,No,1,5 min,Very Low,A little natural light",1,14698,2021-10-07 14:56:42,1807
5e7cd5fbbb2c2c33153d372c,ma_choice_v2_pilot1,"",12,0,-1,-1,"Proximity to Waterfront/Beaches,Age of Building,Amount of Natural Light,Freshly Painted Exterior,Size of Garage,Hardwood Floors,Reputation of Closest School","30 min,Medium,A lot of natural light,Yes,Large,No,Very Good","60 min,Old,A little natural light,No,None,No,Good",0,9925,2021-10-07 14:56:49,1808
5e7cd5fbbb2c2c33153d372c,ma_choice_v2_pilot1,"",13,0,-1,-1,"Proximity to Cafes/Restaurants,Number of Bedrooms,Central AC,Freshly Painted Exterior,Hardwood Floors,Fireplace,Washer/Dryer","10 min,3,Yes,Yes,Yes,Yes,No","10 min,2,Yes,No,Yes,No,No",0,9773,2021-10-07 14:57:00,1809
5e1c6eb807951345dc242ef4,ma_choice_v2_pilot1,"",39,0,-1,-1,"Noise Pollution,Proximity to Cafes/Restaurants,Central AC,Amount of Natural Light,Reputation of Closest School,Freshly Painted Exterior,Proximity to Parks","High,10 min,Yes,A lot of natural light,Very Bad,Yes,10 min","Medium,10 min,Yes,Moderate natural light,Very Good,Yes,10 min",0,20137,2021-10-07 14:57:03,1810
5e1c6eb807951345dc242ef4,ma_choice_v2_pilot1,"",40,0,-1,-1,"Hardwood Floors,Proximity to Parks,Proximity to Waterfront/Beaches,Reputation of Closest School,Size of Yard,Climate of Area,Size of Garage","Yes,10 min,60 min,Bad,Medium,Very Good,Small","No,20 min,10 min,Bad,Small,Very Bad,Medium",1,7860,2021-10-07 14:57:12,1811
5e7cd5fbbb2c2c33153d372c,ma_choice_v2_pilot1,"",14,0,-1,-1,"Size of Home,Size of Garage,Proximity to Cafes/Restaurants,Central AC,Proximity to Waterfront/Beaches,Freshly Painted Exterior,Size of Yard","1318 sq feet,Large,5 min,Yes,30 min,No,None","1194 sq feet,Small,5 min,Yes,90 minutes,Yes,Large",0,16184,2021-10-07 14:57:17,1812
5e1c6eb807951345dc242ef4,ma_choice_v2_pilot1,"",41,0,-1,-1,"Washer/Dryer,Size of Garage,Age of Building,Freshly Painted Exterior,Size of Yard,Proximity to Parks,Climate of Area","Yes,None,New,Yes,None,10 min,Very Good","No,Small,Medium,Yes,Medium,10 min,Moderate",1,8411,2021-10-07 14:57:21,1813
5e7cd5fbbb2c2c33153d372c,ma_choice_v2_pilot1,"",15,0,-1,-1,"Size of Garage,Fireplace,Noise Pollution,Amount of Natural Light,Climate of Area,Washer/Dryer,Central AC","Medium,Yes,Medium,Moderate natural light,Very Good,Yes,Yes","Large,No,Medium,No natural light,Very Bad,No,No",0,9304,2021-10-07 14:57:27,1814
5e1c6eb807951345dc242ef4,ma_choice_v2_pilot1,"",42,0,-1,-1,"Age of Building,Size of Garage,Climate of Area,Amount of Natural Light,Reputation of Closest School,Proximity to Waterfront/Beaches,Hardwood Floors","Old,Large,Good,No natural light,Very Bad,120 minutes,No","Old,Large,Very Bad,A little natural light,Bad,10 min,No",1,21891,2021-10-07 14:57:44,1815
5e7cd5fbbb2c2c33153d372c,ma_choice_v2_pilot1,"",16,0,-1,-1,"Fireplace,Central AC,Size of Garage,Proximity to Waterfront/Beaches,Amount of Crime in Neighborhood,Amount of Natural Light,Age of Building","No,No,None,120 minutes,Very High,No natural light,Old","Yes,No,Small,60 min,High,Moderate natural light,Old",1,16873,2021-10-07 14:57:45,1816
5e1c6eb807951345dc242ef4,ma_choice_v2_pilot1,"",43,0,-1,-1,"Size of Yard,Size of Home,Proximity to Cafes/Restaurants,Size of Garage,Freshly Painted Exterior,Amount of Natural Light,Reputation of Closest School","Large,1109 sq feet,10 min,Medium,No,No natural light,Bad","Large,1545 sq feet,5 min,Small,No,A lot of natural light,Very Bad",1,7979,2021-10-07 14:57:53,1817
5e7cd5fbbb2c2c33153d372c,ma_choice_v2_pilot1,"",17,0,-1,-1,"Climate of Area,Number of Bedrooms,Proximity to Waterfront/Beaches,Age of Building,Size of Garage,Hardwood Floors,Fireplace","Very Good,2,30 min,Old,None,No,Yes","Good,2,10 min,Old,Large,Yes,Yes",0,15587,2021-10-07 14:58:02,1818
5e1c6eb807951345dc242ef4,ma_choice_v2_pilot1,"",44,0,-1,-1,"Central AC,Hardwood Floors,Age of Building,Fireplace,Proximity to Waterfront/Beaches,Size of Garage,Washer/Dryer","Yes,Yes,Old,No,90 minutes,Small,Yes","Yes,Yes,New,Yes,120 minutes,Small,Yes",0,9643,2021-10-07 14:58:04,1819
5e7cd5fbbb2c2c33153d372c,ma_choice_v2_pilot1,"",18,0,-1,-1,"Proximity to Parks,Reputation of Closest School,Hardwood Floors,Proximity to Waterfront/Beaches,Size of Garage,Climate of Area,Amount of Crime in Neighborhood","5 min,Very Good,Yes,120 minutes,Medium,Moderate,Low","10 min,Moderate,No,30 min,Large,Very Good,Very Low",1,11560,2021-10-07 14:58:14,1820
5e1c6eb807951345dc242ef4,ma_choice_v2_pilot1,"",45,0,-1,-1,"Central AC,Proximity to Parks,Washer/Dryer,Hardwood Floors,Proximity to Waterfront/Beaches,Amount of Crime in Neighborhood,Age of Building","Yes,20 min,No,No,10 min,Very High,Old","No,5 min,No,Yes,30 min,Moderate,New",0,10697,2021-10-07 14:58:16,1821
580fee689c444f0001cfa03a,ma_choice_v2_pilot1,"",0,1,-1,-1,"Number of Bedrooms,Hardwood Floors,Size of Yard,Size of Home,Proximity to Parks,Proximity to Cafes/Restaurants,Climate of Area","1,No,Large,721 sq feet,5 min,10 min,Bad","1,Yes,Small,1380 sq feet,10 min,20 min,Moderate",1,28222,2021-10-07 14:58:23,1822
5e1c6eb807951345dc242ef4,ma_choice_v2_pilot1,"",46,0,-1,-1,"Washer/Dryer,Climate of Area,Proximity to Waterfront/Beaches,Reputation of Closest School,Hardwood Floors,Proximity to Parks,Freshly Painted Exterior","No,Very Bad,120 minutes,Good,Yes,20 min,Yes","Yes,Very Good,60 min,Very Bad,Yes,10 min,Yes",1,16782,2021-10-07 14:58:33,1823
5e7cd5fbbb2c2c33153d372c,ma_choice_v2_pilot1,"",19,0,-1,-1,"Proximity to Cafes/Restaurants,Number of Bedrooms,Reputation of Closest School,Age of Building,Freshly Painted Exterior,Proximity to Waterfront/Beaches,Size of Yard","5 min,3,Good,Medium,No,120 minutes,Medium","20 min,3,Good,Medium,Yes,30 min,None",0,19091,2021-10-07 14:58:34,1824
580fee689c444f0001cfa03a,ma_choice_v2_pilot1,"",1,1,-1,-1,"Proximity to Waterfront/Beaches,Washer/Dryer,Proximity to Parks,Climate of Area,Hardwood Floors,Proximity to Cafes/Restaurants,Size of Garage","30 min,No,20 min,Very Good,Yes,20 min,Medium","10 min,Yes,20 min,Very Bad,Yes,5 min,Large",0,26542,2021-10-07 14:58:50,1825
5e1c6eb807951345dc242ef4,ma_choice_v2_pilot1,"",47,0,-1,-1,"Number of Bedrooms,Fireplace,Amount of Crime in Neighborhood,Size of Home,Reputation of Closest School,Hardwood Floors,Washer/Dryer","1,Yes,High,1093 sq feet,Moderate,Yes,Yes","1,No,Low,1205 sq feet,Very Good,No,Yes",1,16918,2021-10-07 14:58:51,1826
5e7cd5fbbb2c2c33153d372c,ma_choice_v2_pilot1,"",20,0,-1,-1,"Size of Yard,Washer/Dryer,Size of Garage,Age of Building,Climate of Area,Size of Home,Amount of Natural Light","Medium,Yes,Large,New,Bad,1346 sq feet,No natural light","None,No,Medium,Old,Good,1494 sq feet,Moderate natural light",1,16461,2021-10-07 14:58:52,1827
5e1c6eb807951345dc242ef4,ma_choice_v2_pilot1,"",48,0,-1,-1,"Age of Building,Proximity to Cafes/Restaurants,Noise Pollution,Size of Home,Climate of Area,Number of Bedrooms,Size of Garage","Old,10 min,Medium,483 sq feet,Bad,3,None","New,20 min,Low,1815 sq feet,Moderate,2,None",0,7678,2021-10-07 14:59:00,1828
5e7cd5fbbb2c2c33153d372c,ma_choice_v2_pilot1,"",21,0,-1,-1,"Freshly Painted Exterior,Proximity to Waterfront/Beaches,Amount of Crime in Neighborhood,Size of Home,Fireplace,Size of Garage,Washer/Dryer","No,60 min,Very High,1359 sq feet,No,Large,Yes","No,120 minutes,Very High,696 sq feet,Yes,Small,Yes",0,11957,2021-10-07 14:59:05,1829
580fee689c444f0001cfa03a,ma_choice_v2_pilot1,"",2,1,-1,-1,"Age of Building,Proximity to Cafes/Restaurants,Climate of Area,Noise Pollution,Amount of Natural Light,Number of Bedrooms,Size of Garage","New,10 min,Moderate,High,No natural light,2,None","Old,10 min,Bad,High,A little natural light,2,Large",0,25344,2021-10-07 14:59:17,1830
5e7cd5fbbb2c2c33153d372c,ma_choice_v2_pilot1,"",22,0,-1,-1,"Freshly Painted Exterior,Reputation of Closest School,Number of Bedrooms,Size of Home,Amount of Natural Light,Hardwood Floors,Proximity to Parks","No,Very Good,3,1652 sq feet,A little natural light,No,20 min","No,Very Bad,3,732 sq feet,A little natural light,No,20 min",0,11234,2021-10-07 14:59:17,1831
5e7cd5fbbb2c2c33153d372c,ma_choice_v2_pilot1,"",23,0,-1,-1,"Hardwood Floors,Climate of Area,Size of Garage,Amount of Natural Light,Age of Building,Reputation of Closest School,Amount of Crime in Neighborhood","Yes,Moderate,Large,A little natural light,New,Bad,Very Low","No,Moderate,Medium,A lot of natural light,Medium,Very Bad,Low",1,11596,2021-10-07 14:59:30,1832
580fee689c444f0001cfa03a,ma_choice_v2_pilot1,"",3,1,-1,-1,"Amount of Crime in Neighborhood,Proximity to Parks,Size of Yard,Hardwood Floors,Size of Garage,Central AC,Washer/Dryer","Very High,5 min,Small,Yes,None,No,Yes","Moderate,10 min,Large,Yes,Small,Yes,Yes",1,16257,2021-10-07 14:59:34,1833
5e1c6eb807951345dc242ef4,ma_choice_v2_pilot1,"",49,0,-1,-1,"Fireplace,Climate of Area,Reputation of Closest School,Size of Garage,Age of Building,Size of Home,Proximity to Parks","No,Very Bad,Moderate,Medium,Old,833 sq feet,10 min","Yes,Good,Very Good,None,Medium,1043 sq feet,5 min",0,35406,2021-10-07 14:59:37,1834
5e7cd5fbbb2c2c33153d372c,ma_choice_v2_pilot1,"",24,0,-1,-1,"Hardwood Floors,Central AC,Size of Garage,Amount of Natural Light,Amount of Crime in Neighborhood,Washer/Dryer,Fireplace","Yes,Yes,Small,Moderate natural light,Very High,Yes,Yes","No,Yes,Medium,A lot of natural light,Low,Yes,Yes",1,8370,2021-10-07 14:59:39,1835
5e1c6eb807951345dc242ef4,ma_choice_v2_pilot1,"",50,0,-1,-1,"Size of Yard,Central AC,Proximity to Cafes/Restaurants,Proximity to Waterfront/Beaches,Size of Garage,Number of Bedrooms,Age of Building","Medium,No,10 min,90 minutes,Small,1,New","Large,No,10 min,30 min,Large,3,Medium",1,7700,2021-10-07 14:59:45,1836
5e7cd5fbbb2c2c33153d372c,ma_choice_v2_pilot1,"",25,0,-1,-1,"Washer/Dryer,Amount of Natural Light,Climate of Area,Size of Yard,Reputation of Closest School,Age of Building,Proximity to Cafes/Restaurants","Yes,Moderate natural light,Moderate,Medium,Moderate,New,20 min","Yes,No natural light,Very Good,Medium,Very Good,New,20 min",0,9147,2021-10-07 14:59:49,1837
5e1c6eb807951345dc242ef4,ma_choice_v2_pilot1,"",51,0,-1,-1,"Freshly Painted Exterior,Proximity to Cafes/Restaurants,Climate of Area,Age of Building,Amount of Natural Light,Reputation of Closest School,Size of Yard","Yes,20 min,Very Bad,Old,No natural light,Very Good,Small","Yes,5 min,Very Bad,Old,A lot of natural light,Very Bad,Large",1,7824,2021-10-07 14:59:54,1838
580fee689c444f0001cfa03a,ma_choice_v2_pilot1,"",4,1,-1,-1,"Proximity to Cafes/Restaurants,Washer/Dryer,Proximity to Waterfront/Beaches,Fireplace,Central AC,Size of Home,Number of Bedrooms","20 min,Yes,120 minutes,Yes,Yes,1421 sq feet,2","5 min,No,30 min,No,No,1195 sq feet,2",1,27486,2021-10-07 15:00:02,1839
5e1c6eb807951345dc242ef4,ma_choice_v2_pilot1,"",52,0,-1,-1,"Washer/Dryer,Size of Garage,Proximity to Parks,Climate of Area,Age of Building,Size of Home,Reputation of Closest School","Yes,Large,20 min,Very Good,Old,1245 sq feet,Very Good","Yes,None,10 min,Good,New,1466 sq feet,Bad",0,7869,2021-10-07 15:00:03,1840
5e7cd5fbbb2c2c33153d372c,ma_choice_v2_pilot1,"",26,0,-1,-1,"Climate of Area,Fireplace,Size of Yard,Number of Bedrooms,Proximity to Cafes/Restaurants,Size of Home,Reputation of Closest School","Good,Yes,None,3,20 min,1738 sq feet,Moderate","Good,No,Small,1,20 min,949 sq feet,Very Bad",0,20142,2021-10-07 15:00:10,1841
580fee689c444f0001cfa03a,ma_choice_v2_pilot1,"",5,1,-1,-1,"Noise Pollution,Hardwood Floors,Freshly Painted Exterior,Central AC,Size of Garage,Reputation of Closest School,Fireplace","Medium,Yes,No,No,Small,Good,No","High,Yes,Yes,No,Small,Good,No",0,14874,2021-10-07 15:00:18,1842
5e7cd5fbbb2c2c33153d372c,ma_choice_v2_pilot1,"",27,0,-1,-1,"Number of Bedrooms,Central AC,Size of Yard,Noise Pollution,Washer/Dryer,Amount of Crime in Neighborhood,Size of Home","2,No,Large,Medium,Yes,Low,1948 sq feet","2,Yes,Large,High,No,Very High,1357 sq feet",0,7595,2021-10-07 15:00:19,1843
5e1c6eb807951345dc242ef4,ma_choice_v2_pilot1,"",53,0,-1,-1,"Reputation of Closest School,Noise Pollution,Age of Building,Size of Home,Washer/Dryer,Amount of Natural Light,Climate of Area","Very Bad,Medium,Medium,1643 sq feet,No,A lot of natural light,Moderate","Bad,Medium,Medium,1900 sq feet,Yes,A lot of natural light,Very Bad",1,30371,2021-10-07 15:00:34,1844
580fee689c444f0001cfa03a,ma_choice_v2_pilot1,"",6,1,-1,-1,"Climate of Area,Proximity to Parks,Central AC,Proximity to Cafes/Restaurants,Noise Pollution,Amount of Crime in Neighborhood,Number of Bedrooms","Very Bad,10 min,Yes,20 min,Low,Very Low,2","Moderate,10 min,No,10 min,Low,High,3",0,19794,2021-10-07 15:00:39,1845
5e7cd5fbbb2c2c33153d372c,ma_choice_v2_pilot1,"",28,0,-1,-1,"Freshly Painted Exterior,Age of Building,Washer/Dryer,Hardwood Floors,Number of Bedrooms,Amount of Natural Light,Size of Garage","Yes,New,No,No,2,Moderate natural light,Medium","Yes,Medium,Yes,Yes,1,A lot of natural light,None",1,19720,2021-10-07 15:00:40,1846
5e1c6eb807951345dc242ef4,ma_choice_v2_pilot1,"",54,0,-1,-1,"Freshly Painted Exterior,Climate of Area,Size of Yard,Reputation of Closest School,Amount of Natural Light,Hardwood Floors,Proximity to Cafes/Restaurants","No,Bad,None,Moderate,A little natural light,No,10 min","No,Moderate,Small,Good,No natural light,Yes,20 min",0,7769,2021-10-07 15:00:43,1847
5e7cd5fbbb2c2c33153d372c,ma_choice_v2_pilot1,"",29,0,-1,-1,"Size of Garage,Washer/Dryer,Age of Building,Freshly Painted Exterior,Proximity to Cafes/Restaurants,Climate of Area,Fireplace","Small,Yes,New,No,5 min,Bad,No","None,Yes,Medium,No,10 min,Very Bad,No",0,8799,2021-10-07 15:00:50,1848
580fee689c444f0001cfa03a,ma_choice_v2_pilot1,"",7,1,-1,-1,"Proximity to Waterfront/Beaches,Freshly Painted Exterior,Age of Building,Proximity to Cafes/Restaurants,Amount of Crime in Neighborhood,Washer/Dryer,Fireplace","120 minutes,No,Medium,10 min,Very High,No,Yes","30 min,Yes,Medium,20 min,Low,No,No",1,11121,2021-10-07 15:00:51,1849
5e1c6eb807951345dc242ef4,ma_choice_v2_pilot1,"",55,0,-1,-1,"Size of Home,Size of Garage,Proximity to Cafes/Restaurants,Fireplace,Freshly Painted Exterior,Climate of Area,Proximity to Waterfront/Beaches","798 sq feet,Large,20 min,No,Yes,Bad,90 minutes","1754 sq feet,Medium,5 min,Yes,No,Moderate,30 min",1,8246,2021-10-07 15:00:52,1850
5e7cd5fbbb2c2c33153d372c,ma_choice_v2_pilot1,"",30,0,-1,-1,"Proximity to Waterfront/Beaches,Size of Yard,Age of Building,Amount of Natural Light,Washer/Dryer,Proximity to Parks,Hardwood Floors","120 minutes,Large,Medium,A lot of natural light,No,10 min,Yes","120 minutes,None,Medium,A little natural light,No,5 min,No",0,7844,2021-10-07 15:00:58,1851
5e1c6eb807951345dc242ef4,ma_choice_v2_pilot1,"",56,0,-1,-1,"Size of Home,Central AC,Noise Pollution,Amount of Crime in Neighborhood,Washer/Dryer,Freshly Painted Exterior,Climate of Area","1117 sq feet,No,Low,Low,Yes,No,Very Good","1287 sq feet,No,Medium,Low,No,No,Good",0,10924,2021-10-07 15:01:04,1852
580fee689c444f0001cfa03a,ma_choice_v2_pilot1,"",8,1,-1,-1,"Climate of Area,Amount of Natural Light,Washer/Dryer,Proximity to Waterfront/Beaches,Amount of Crime in Neighborhood,Noise Pollution,Age of Building","Very Good,No natural light,Yes,30 min,Very High,Medium,New","Good,No natural light,Yes,120 minutes,Low,Low,Old",1,19764,2021-10-07 15:01:12,1853
5e1c6eb807951345dc242ef4,ma_choice_v2_pilot1,"",57,0,-1,-1,"Size of Yard,Age of Building,Freshly Painted Exterior,Proximity to Waterfront/Beaches,Proximity to Cafes/Restaurants,Amount of Crime in Neighborhood,Fireplace","None,Medium,No,30 min,10 min,Very High,No","Small,New,No,60 min,20 min,Moderate,No",0,7630,2021-10-07 15:01:13,1854
5e7cd5fbbb2c2c33153d372c,ma_choice_v2_pilot1,"",31,0,-1,-1,"Freshly Painted Exterior,Amount of Crime in Neighborhood,Hardwood Floors,Central AC,Washer/Dryer,Size of Home,Age of Building","No,Moderate,Yes,No,Yes,1656 sq feet,New","Yes,Low,No,No,Yes,408 sq feet,Medium",0,17311,2021-10-07 15:01:17,1855
5e1c6eb807951345dc242ef4,ma_choice_v2_pilot1,"",58,0,-1,-1,"Proximity to Cafes/Restaurants,Size of Home,Age of Building,Proximity to Parks,Noise Pollution,Amount of Crime in Neighborhood,Size of Yard","20 min,629 sq feet,New,10 min,Low,High,Large","20 min,1951 sq feet,New,10 min,High,Very High,Medium",0,8526,2021-10-07 15:01:22,1856
5e7cd5fbbb2c2c33153d372c,ma_choice_v2_pilot1,"",32,0,-1,-1,"Fireplace,Reputation of Closest School,Size of Home,Age of Building,Size of Garage,Washer/Dryer,Noise Pollution","Yes,Moderate,539 sq feet,Medium,Medium,Yes,High","Yes,Moderate,905 sq feet,Medium,Medium,No,Low",1,9677,2021-10-07 15:01:27,1857
580fee689c444f0001cfa03a,ma_choice_v2_pilot1,"",9,1,-1,-1,"Hardwood Floors,Freshly Painted Exterior,Noise Pollution,Proximity to Waterfront/Beaches,Size of Home,Amount of Natural Light,Fireplace","Yes,No,High,120 minutes,1199 sq feet,No natural light,Yes","No,No,High,60 min,1983 sq feet,A little natural light,No",1,19354,2021-10-07 15:01:32,1858
5e1c6eb807951345dc242ef4,ma_choice_v2_pilot1,"",59,0,-1,-1,"Central AC,Amount of Crime in Neighborhood,Size of Yard,Size of Home,Age of Building,Freshly Painted Exterior,Size of Garage","Yes,Very High,Small,984 sq feet,Old,Yes,None","Yes,Very High,Small,515 sq feet,Medium,No,Medium",0,9160,2021-10-07 15:01:33,1859
5e1c6eb807951345dc242ef4,ma_choice_v2_pilot1,"",60,0,-1,-1,"Freshly Painted Exterior,Amount of Crime in Neighborhood,Amount of Natural Light,Size of Home,Climate of Area,Proximity to Waterfront/Beaches,Size of Garage","No,Moderate,A lot of natural light,1127 sq feet,Very Good,60 min,Medium","Yes,High,Moderate natural light,1127 sq feet,Moderate,30 min,Small",0,8046,2021-10-07 15:01:42,1860
5e7cd5fbbb2c2c33153d372c,ma_choice_v2_pilot1,"",33,0,-1,-1,"Proximity to Cafes/Restaurants,Freshly Painted Exterior,Size of Garage,Age of Building,Number of Bedrooms,Noise Pollution,Amount of Natural Light","10 min,Yes,Large,Old,3,Low,Moderate natural light","5 min,No,Medium,Medium,1,Low,A lot of natural light",0,15404,2021-10-07 15:01:44,1861
5e1c6eb807951345dc242ef4,ma_choice_v2_pilot1,"",61,0,-1,-1,"Noise Pollution,Proximity to Waterfront/Beaches,Freshly Painted Exterior,Size of Yard,Washer/Dryer,Climate of Area,Central AC","Medium,10 min,Yes,Medium,Yes,Very Good,Yes","High,60 min,No,None,Yes,Moderate,No",0,7981,2021-10-07 15:01:51,1862
5e1c6eb807951345dc242ef4,ma_choice_v2_pilot1,"",62,0,-1,-1,"Reputation of Closest School,Age of Building,Number of Bedrooms,Proximity to Parks,Noise Pollution,Proximity to Cafes/Restaurants,Hardwood Floors","Good,New,3,10 min,Medium,20 min,Yes","Bad,New,1,10 min,Medium,20 min,Yes",0,8115,2021-10-07 15:02:00,1863
5e7cd5fbbb2c2c33153d372c,ma_choice_v2_pilot1,"",34,0,-1,-1,"Central AC,Reputation of Closest School,Number of Bedrooms,Proximity to Cafes/Restaurants,Proximity to Parks,Size of Yard,Climate of Area","Yes,Very Bad,1,10 min,5 min,Large,Very Bad","Yes,Good,3,20 min,20 min,Large,Bad",1,22075,2021-10-07 15:02:07,1864
5e7cd5fbbb2c2c33153d372c,ma_choice_v2_pilot1,"",35,0,-1,-1,"Proximity to Waterfront/Beaches,Noise Pollution,Age of Building,Reputation of Closest School,Proximity to Cafes/Restaurants,Climate of Area,Freshly Painted Exterior","60 min,Medium,New,Good,20 min,Bad,Yes","120 minutes,Low,Medium,Very Good,5 min,Very Good,No",1,7906,2021-10-07 15:02:16,1865
5e1c6eb807951345dc242ef4,ma_choice_v2_pilot1,"",63,0,-1,-1,"Fireplace,Climate of Area,Proximity to Parks,Washer/Dryer,Freshly Painted Exterior,Number of Bedrooms,Age of Building","No,Moderate,5 min,Yes,Yes,2,New","Yes,Very Bad,5 min,Yes,Yes,2,New",0,20772,2021-10-07 15:02:21,1866
5e7cd5fbbb2c2c33153d372c,ma_choice_v2_pilot1,"",36,0,-1,-1,"Fireplace,Noise Pollution,Size of Home,Freshly Painted Exterior,Proximity to Parks,Proximity to Waterfront/Beaches,Amount of Crime in Neighborhood","No,High,1046 sq feet,Yes,20 min,10 min,Very High","No,High,806 sq feet,Yes,20 min,90 minutes,High",1,12912,2021-10-07 15:02:30,1867
580fee689c444f0001cfa03a,ma_choice_v2_pilot1,"",0,0,-1,-1,"Amount of Natural Light,Reputation of Closest School,Hardwood Floors,Number of Bedrooms,Fireplace,Size of Home,Proximity to Waterfront/Beaches","Moderate natural light,Very Bad,Yes,2,No,1390 sq feet,60 min","A lot of natural light,Bad,No,2,No,557 sq feet,10 min",1,31325,2021-10-07 15:02:30,1868
5e1c6eb807951345dc242ef4,ma_choice_v2_pilot1,"",64,0,-1,-1,"Proximity to Cafes/Restaurants,Size of Garage,Reputation of Closest School,Proximity to Waterfront/Beaches,Proximity to Parks,Freshly Painted Exterior,Hardwood Floors","5 min,Small,Very Bad,10 min,20 min,Yes,Yes","10 min,Medium,Very Good,120 minutes,5 min,No,No",0,8560,2021-10-07 15:02:31,1869
5e7cd5fbbb2c2c33153d372c,ma_choice_v2_pilot1,"",37,0,-1,-1,"Size of Home,Climate of Area,Proximity to Parks,Hardwood Floors,Reputation of Closest School,Amount of Natural Light,Washer/Dryer","1768 sq feet,Good,10 min,Yes,Moderate,A lot of natural light,No","1129 sq feet,Very Bad,5 min,No,Moderate,A little natural light,No",0,8742,2021-10-07 15:02:40,1870
5e1c6eb807951345dc242ef4,ma_choice_v2_pilot1,"",65,0,-1,-1,"Noise Pollution,Size of Yard,Freshly Painted Exterior,Amount of Natural Light,Hardwood Floors,Amount of Crime in Neighborhood,Reputation of Closest School","Medium,Large,No,No natural light,No,Low,Very Good","High,Small,Yes,A lot of natural light,No,Very Low,Moderate",1,7730,2021-10-07 15:02:40,1871
5e1c6eb807951345dc242ef4,ma_choice_v2_pilot1,"",66,0,-1,-1,"Size of Garage,Reputation of Closest School,Proximity to Parks,Washer/Dryer,Central AC,Freshly Painted Exterior,Size of Yard","None,Very Good,5 min,Yes,Yes,No,Medium","Medium,Very Good,10 min,Yes,Yes,Yes,Small",1,7706,2021-10-07 15:02:48,1872
5e1c6eb807951345dc242ef4,ma_choice_v2_pilot1,"",67,0,-1,-1,"Fireplace,Number of Bedrooms,Amount of Crime in Neighborhood,Freshly Painted Exterior,Size of Garage,Noise Pollution,Climate of Area","No,3,Very Low,No,Large,Medium,Moderate","No,3,High,No,Small,Medium,Moderate",0,9958,2021-10-07 15:02:59,1873
5e7cd5fbbb2c2c33153d372c,ma_choice_v2_pilot1,"",38,0,-1,-1,"Amount of Crime in Neighborhood,Proximity to Parks,Hardwood Floors,Climate of Area,Amount of Natural Light,Central AC,Age of Building","Low,10 min,Yes,Very Bad,No natural light,No,Old","High,5 min,No,Moderate,A little natural light,No,New",1,19326,2021-10-07 15:03:00,1874
580fee689c444f0001cfa03a,ma_choice_v2_pilot1,"",1,0,-1,-1,"Number of Bedrooms,Washer/Dryer,Size of Garage,Proximity to Waterfront/Beaches,Climate of Area,Freshly Painted Exterior,Proximity to Cafes/Restaurants","2,Yes,Small,90 minutes,Bad,No,5 min","3,No,None,60 min,Very Bad,Yes,5 min",0,33989,2021-10-07 15:03:05,1875
5e1c6eb807951345dc242ef4,ma_choice_v2_pilot1,"",68,0,-1,-1,"Size of Yard,Proximity to Cafes/Restaurants,Size of Home,Amount of Crime in Neighborhood,Washer/Dryer,Fireplace,Amount of Natural Light","Small,20 min,844 sq feet,Very High,Yes,Yes,Moderate natural light","Medium,5 min,940 sq feet,Very High,Yes,No,A lot of natural light",1,7901,2021-10-07 15:03:08,1876
5e7cd5fbbb2c2c33153d372c,ma_choice_v2_pilot1,"",39,0,-1,-1,"Noise Pollution,Size of Yard,Proximity to Waterfront/Beaches,Proximity to Cafes/Restaurants,Proximity to Parks,Number of Bedrooms,Washer/Dryer","Low,Small,120 minutes,10 min,10 min,2,Yes","Medium,None,60 min,10 min,10 min,2,Yes",0,15977,2021-10-07 15:03:17,1877
5e1c6eb807951345dc242ef4,ma_choice_v2_pilot1,"",69,0,-1,-1,"Size of Garage,Size of Yard,Noise Pollution,Age of Building,Central AC,Freshly Painted Exterior,Size of Home","Large,Medium,Low,Medium,No,Yes,1865 sq feet","Medium,Medium,Low,New,No,No,1911 sq feet",0,8360,2021-10-07 15:03:18,1878
5e7cd5fbbb2c2c33153d372c,ma_choice_v2_pilot1,"",40,0,-1,-1,"Size of Yard,Freshly Painted Exterior,Hardwood Floors,Size of Garage,Amount of Crime in Neighborhood,Proximity to Cafes/Restaurants,Noise Pollution","Medium,No,No,Medium,Very High,5 min,Low","Small,No,No,Small,Moderate,5 min,Low",1,7703,2021-10-07 15:03:26,1879
5e1c6eb807951345dc242ef4,ma_choice_v2_pilot1,"",70,0,-1,-1,"Noise Pollution,Age of Building,Freshly Painted Exterior,Fireplace,Central AC,Proximity to Waterfront/Beaches,Climate of Area","Medium,Medium,No,No,No,30 min,Moderate","Low,New,No,Yes,Yes,30 min,Very Good",0,7979,2021-10-07 15:03:27,1880
5e7cd5fbbb2c2c33153d372c,ma_choice_v2_pilot1,"",41,0,-1,-1,"Noise Pollution,Size of Home,Proximity to Waterfront/Beaches,Proximity to Cafes/Restaurants,Reputation of Closest School,Age of Building,Proximity to Parks","Low,961 sq feet,30 min,10 min,Good,New,5 min","High,1464 sq feet,90 minutes,5 min,Very Bad,New,20 min",0,7484,2021-10-07 15:03:34,1881
5e1c6eb807951345dc242ef4,ma_choice_v2_pilot1,"",71,0,-1,-1,"Washer/Dryer,Size of Garage,Reputation of Closest School,Fireplace,Proximity to Parks,Size of Home,Amount of Natural Light","No,None,Good,Yes,20 min,666 sq feet,A little natural light","Yes,Large,Good,Yes,10 min,1558 sq feet,A lot of natural light",1,8907,2021-10-07 15:03:37,1882
580fee689c444f0001cfa03a,ma_choice_v2_pilot1,"",2,0,-1,-1,"Washer/Dryer,Size of Home,Size of Yard,Proximity to Cafes/Restaurants,Age of Building,Central AC,Noise Pollution","No,1644 sq feet,None,20 min,New,Yes,Low","No,522 sq feet,Medium,10 min,Medium,No,Medium",1,38649,2021-10-07 15:03:45,1883
5e7cd5fbbb2c2c33153d372c,ma_choice_v2_pilot1,"",42,0,-1,-1,"Amount of Crime in Neighborhood,Climate of Area,Size of Garage,Number of Bedrooms,Proximity to Parks,Size of Home,Fireplace","Low,Bad,None,3,5 min,1819 sq feet,Yes","Low,Moderate,Large,2,10 min,1933 sq feet,No",1,12288,2021-10-07 15:03:47,1884
5e7cd5fbbb2c2c33153d372c,ma_choice_v2_pilot1,"",43,0,-1,-1,"Size of Garage,Fireplace,Number of Bedrooms,Climate of Area,Age of Building,Proximity to Cafes/Restaurants,Washer/Dryer","Large,Yes,1,Bad,Old,10 min,No","Small,Yes,1,Good,New,20 min,Yes",1,8903,2021-10-07 15:03:57,1885
5e1c6eb807951345dc242ef4,ma_choice_v2_pilot1,"",72,0,-1,-1,"Noise Pollution,Washer/Dryer,Number of Bedrooms,Size of Home,Fireplace,Central AC,Age of Building","Low,Yes,3,691 sq feet,No,No,Medium","High,Yes,1,1874 sq feet,Yes,No,New",0,21893,2021-10-07 15:04:00,1886
580fee689c444f0001cfa03a,ma_choice_v2_pilot1,"",3,0,-1,-1,"Central AC,Number of Bedrooms,Amount of Natural Light,Size of Garage,Fireplace,Proximity to Waterfront/Beaches,Reputation of Closest School","No,1,A lot of natural light,Small,Yes,120 minutes,Moderate","No,1,Moderate natural light,Small,No,60 min,Good",1,19420,2021-10-07 15:04:05,1887
5e7cd5fbbb2c2c33153d372c,ma_choice_v2_pilot1,"",44,0,-1,-1,"Age of Building,Hardwood Floors,Proximity to Cafes/Restaurants,Proximity to Waterfront/Beaches,Freshly Painted Exterior,Washer/Dryer,Number of Bedrooms","Old,No,20 min,30 min,No,No,2","Medium,No,5 min,60 min,Yes,Yes,3",1,10478,2021-10-07 15:04:09,1888
5e02204b2fc478db652b6466,ma_choice_v2_pilot1,"",0,1,-1,-1,"Size of Home,Fireplace,Proximity to Waterfront/Beaches,Hardwood Floors,Freshly Painted Exterior,Amount of Natural Light,Amount of Crime in Neighborhood","1813 sq feet,Yes,120 minutes,Yes,No,Moderate natural light,Very Low","1669 sq feet,No,60 min,No,Yes,No natural light,High",0,15574,2021-10-07 15:04:10,1889
5e1c6eb807951345dc242ef4,ma_choice_v2_pilot1,"",73,0,-1,-1,"Climate of Area,Fireplace,Proximity to Waterfront/Beaches,Proximity to Cafes/Restaurants,Amount of Crime in Neighborhood,Freshly Painted Exterior,Noise Pollution","Very Good,Yes,30 min,10 min,Very Low,No,High","Bad,No,30 min,20 min,Moderate,No,High",0,12865,2021-10-07 15:04:13,1890
5e02204b2fc478db652b6466,ma_choice_v2_pilot1,"",1,1,-1,-1,"Age of Building,Proximity to Cafes/Restaurants,Size of Yard,Proximity to Waterfront/Beaches,Central AC,Climate of Area,Proximity to Parks","New,10 min,None,10 min,No,Very Good,10 min","Medium,20 min,None,10 min,No,Bad,20 min",0,8006,2021-10-07 15:04:19,1891
5e1c6eb807951345dc242ef4,ma_choice_v2_pilot1,"",74,0,-1,-1,"Fireplace,Age of Building,Washer/Dryer,Climate of Area,Freshly Painted Exterior,Number of Bedrooms,Reputation of Closest School","No,New,Yes,Moderate,Yes,2,Very Good","Yes,New,Yes,Bad,No,3,Very Bad",0,8569,2021-10-07 15:04:23,1892
5e7cd5fbbb2c2c33153d372c,ma_choice_v2_pilot1,"",45,0,-1,-1,"Number of Bedrooms,Washer/Dryer,Size of Yard,Amount of Natural Light,Amount of Crime in Neighborhood,Size of Garage,Size of Home","2,No,Large,A little natural light,Very Low,Large,1930 sq feet","3,No,Medium,A lot of natural light,Moderate,None,1612 sq feet",1,16773,2021-10-07 15:04:26,1893
5e02204b2fc478db652b6466,ma_choice_v2_pilot1,"",2,1,-1,-1,"Size of Home,Fireplace,Amount of Natural Light,Central AC,Climate of Area,Proximity to Parks,Washer/Dryer","1714 sq feet,No,No natural light,No,Bad,20 min,No","657 sq feet,Yes,Moderate natural light,Yes,Very Good,20 min,No",1,9366,2021-10-07 15:04:29,1894
5e02204b2fc478db652b6466,ma_choice_v2_pilot1,"",3,1,-1,-1,"Age of Building,Number of Bedrooms,Proximity to Waterfront/Beaches,Size of Home,Proximity to Cafes/Restaurants,Reputation of Closest School,Proximity to Parks","New,3,60 min,1291 sq feet,10 min,Bad,20 min","New,1,10 min,1292 sq feet,20 min,Bad,20 min",1,9334,2021-10-07 15:04:39,1895
5e7cd5fbbb2c2c33153d372c,ma_choice_v2_pilot1,"",46,0,-1,-1,"Amount of Crime in Neighborhood,Washer/Dryer,Size of Yard,Proximity to Waterfront/Beaches,Proximity to Cafes/Restaurants,Noise Pollution,Proximity to Parks","High,Yes,Large,120 minutes,20 min,High,10 min","High,Yes,Small,60 min,5 min,High,10 min",1,21653,2021-10-07 15:04:49,1896
5e02204b2fc478db652b6466,ma_choice_v2_pilot1,"",4,1,-1,-1,"Age of Building,Proximity to Cafes/Restaurants,Proximity to Parks,Size of Yard,Noise Pollution,Fireplace,Hardwood Floors","Old,20 min,5 min,None,Low,No,No","Medium,10 min,5 min,Small,Medium,Yes,Yes",1,9394,2021-10-07 15:04:50,1897
580fee689c444f0001cfa03a,ma_choice_v2_pilot1,"",4,0,-1,-1,"Fireplace,Amount of Natural Light,Proximity to Cafes/Restaurants,Number of Bedrooms,Washer/Dryer,Noise Pollution,Climate of Area","Yes,No natural light,10 min,1,No,Low,Very Bad","Yes,Moderate natural light,5 min,1,Yes,High,Good",1,47427,2021-10-07 15:04:54,1898
5e7cd5fbbb2c2c33153d372c,ma_choice_v2_pilot1,"",47,0,-1,-1,"Amount of Natural Light,Proximity to Parks,Age of Building,Central AC,Climate of Area,Size of Garage,Freshly Painted Exterior","A lot of natural light,10 min,Old,No,Moderate,Large,Yes","A lot of natural light,20 min,Medium,No,Moderate,Large,No",0,7641,2021-10-07 15:04:58,1899
5e7cd5fbbb2c2c33153d372c,ma_choice_v2_pilot1,"",48,0,-1,-1,"Proximity to Parks,Size of Home,Noise Pollution,Fireplace,Amount of Crime in Neighborhood,Central AC,Age of Building","5 min,1637 sq feet,Medium,Yes,Very High,No,Medium","20 min,1747 sq feet,Medium,No,Low,Yes,New",1,7771,2021-10-07 15:05:07,1900
5e02204b2fc478db652b6466,ma_choice_v2_pilot1,"",5,1,-1,-1,"Size of Home,Central AC,Size of Yard,Proximity to Waterfront/Beaches,Fireplace,Amount of Natural Light,Amount of Crime in Neighborhood","1678 sq feet,No,Small,90 minutes,No,A lot of natural light,Low","1818 sq feet,Yes,None,10 min,Yes,Moderate natural light,High",0,18218,2021-10-07 15:05:09,1901
580fee689c444f0001cfa03a,ma_choice_v2_pilot1,"",5,0,-1,-1,"Age of Building,Proximity to Cafes/Restaurants,Size of Garage,Fireplace,Washer/Dryer,Hardwood Floors,Climate of Area","Medium,20 min,None,Yes,No,No,Very Bad","Medium,20 min,None,Yes,No,No,Bad",1,17513,2021-10-07 15:05:12,1902
5e7cd5fbbb2c2c33153d372c,ma_choice_v2_pilot1,"",49,0,-1,-1,"Proximity to Cafes/Restaurants,Size of Garage,Size of Yard,Amount of Natural Light,Fireplace,Noise Pollution,Proximity to Parks","10 min,Large,None,A lot of natural light,No,High,20 min","5 min,None,None,A lot of natural light,No,High,5 min",1,9155,2021-10-07 15:05:17,1903
5e02204b2fc478db652b6466,ma_choice_v2_pilot1,"",6,1,-1,-1,"Freshly Painted Exterior,Fireplace,Size of Yard,Age of Building,Climate of Area,Noise Pollution,Hardwood Floors","Yes,No,None,New,Very Good,Low,No","Yes,Yes,Small,Old,Bad,Medium,No",0,8734,2021-10-07 15:05:19,1904
5e7cd5fbbb2c2c33153d372c,ma_choice_v2_pilot1,"",50,0,-1,-1,"Proximity to Parks,Freshly Painted Exterior,Amount of Crime in Neighborhood,Central AC,Proximity to Cafes/Restaurants,Proximity to Waterfront/Beaches,Number of Bedrooms","5 min,No,Moderate,Yes,20 min,10 min,3","5 min,Yes,Very Low,No,20 min,30 min,1",1,7632,2021-10-07 15:05:25,1905
5e02204b2fc478db652b6466,ma_choice_v2_pilot1,"",7,1,-1,-1,"Freshly Painted Exterior,Amount of Crime in Neighborhood,Central AC,Age of Building,Amount of Natural Light,Size of Home,Washer/Dryer","No,Moderate,Yes,New,No natural light,1209 sq feet,Yes","Yes,High,No,Medium,A little natural light,1519 sq feet,No",0,11246,2021-10-07 15:05:31,1906
580fee689c444f0001cfa03a,ma_choice_v2_pilot1,"",6,0,-1,-1,"Central AC,Proximity to Waterfront/Beaches,Size of Garage,Hardwood Floors,Proximity to Cafes/Restaurants,Amount of Crime in Neighborhood,Size of Yard","No,60 min,Small,No,20 min,Very High,Large","Yes,10 min,Large,Yes,20 min,Very High,Small",1,27886,2021-10-07 15:05:41,1907
5e7cd5fbbb2c2c33153d372c,ma_choice_v2_pilot1,"",51,0,-1,-1,"Washer/Dryer,Age of Building,Central AC,Proximity to Cafes/Restaurants,Size of Garage,Hardwood Floors,Freshly Painted Exterior","No,Medium,No,20 min,Small,No,No","No,Old,Yes,20 min,Large,Yes,No",1,17176,2021-10-07 15:05:44,1908
5e02204b2fc478db652b6466,ma_choice_v2_pilot1,"",8,1,-1,-1,"Amount of Crime in Neighborhood,Size of Yard,Size of Garage,Size of Home,Number of Bedrooms,Noise Pollution,Central AC","Very Low,Large,None,1665 sq feet,2,High,No","Very High,None,Large,1119 sq feet,3,High,Yes",0,14729,2021-10-07 15:05:47,1909
5e7cd5fbbb2c2c33153d372c,ma_choice_v2_pilot1,"",52,0,-1,-1,"Size of Home,Proximity to Parks,Central AC,Noise Pollution,Age of Building,Reputation of Closest School,Size of Yard","1745 sq feet,5 min,No,High,Old,Moderate,Medium","1889 sq feet,20 min,No,Medium,Old,Very Bad,Large",1,7858,2021-10-07 15:05:52,1910
5e02204b2fc478db652b6466,ma_choice_v2_pilot1,"",9,1,-1,-1,"Fireplace,Number of Bedrooms,Proximity to Waterfront/Beaches,Size of Garage,Central AC,Climate of Area,Reputation of Closest School","Yes,2,120 minutes,None,Yes,Good,Moderate","Yes,2,120 minutes,Large,No,Very Bad,Good",1,11051,2021-10-07 15:05:59,1911
580fee689c444f0001cfa03a,ma_choice_v2_pilot1,"",7,0,-1,-1,"Climate of Area,Washer/Dryer,Fireplace,Size of Garage,Age of Building,Proximity to Waterfront/Beaches,Amount of Crime in Neighborhood","Good,No,Yes,Medium,New,30 min,Low","Very Bad,Yes,No,Medium,Medium,120 minutes,Low",0,23158,2021-10-07 15:06:05,1912
5e7cd5fbbb2c2c33153d372c,ma_choice_v2_pilot1,"",53,0,-1,-1,"Age of Building,Number of Bedrooms,Central AC,Freshly Painted Exterior,Size of Yard,Amount of Natural Light,Proximity to Cafes/Restaurants","Old,1,Yes,No,Large,A lot of natural light,20 min","Old,3,No,No,Large,Moderate natural light,20 min",0,19075,2021-10-07 15:06:13,1913
5e7cd5fbbb2c2c33153d372c,ma_choice_v2_pilot1,"",54,0,-1,-1,"Proximity to Waterfront/Beaches,Fireplace,Central AC,Age of Building,Proximity to Parks,Noise Pollution,Proximity to Cafes/Restaurants","10 min,Yes,Yes,Old,5 min,Low,5 min","90 minutes,Yes,Yes,New,20 min,Low,20 min",0,8382,2021-10-07 15:06:22,1914
5e02204b2fc478db652b6466,ma_choice_v2_pilot1,"",0,0,-1,-1,"Size of Garage,Fireplace,Washer/Dryer,Hardwood Floors,Freshly Painted Exterior,Proximity to Waterfront/Beaches,Climate of Area","Large,No,Yes,Yes,No,120 minutes,Bad","Large,No,Yes,No,No,90 minutes,Bad",1,14888,2021-10-07 15:06:31,1915
5e7cd5fbbb2c2c33153d372c,ma_choice_v2_pilot1,"",55,0,-1,-1,"Number of Bedrooms,Central AC,Size of Home,Proximity to Waterfront/Beaches,Freshly Painted Exterior,Size of Yard,Hardwood Floors","3,Yes,481 sq feet,10 min,Yes,Medium,No","2,No,1197 sq feet,10 min,No,Large,No",1,8723,2021-10-07 15:06:32,1916
580fee689c444f0001cfa03a,ma_choice_v2_pilot1,"",8,0,-1,-1,"Hardwood Floors,Washer/Dryer,Noise Pollution,Amount of Natural Light,Fireplace,Amount of Crime in Neighborhood,Number of Bedrooms","Yes,No,Medium,A lot of natural light,No,Very High,1","No,No,Low,No natural light,No,Moderate,2",1,25426,2021-10-07 15:06:32,1917
5e02204b2fc478db652b6466,ma_choice_v2_pilot1,"",1,0,-1,-1,"Proximity to Cafes/Restaurants,Climate of Area,Hardwood Floors,Amount of Natural Light,Central AC,Washer/Dryer,Size of Home","20 min,Very Bad,No,A little natural light,No,No,1218 sq feet","20 min,Bad,Yes,A little natural light,No,Yes,1840 sq feet",1,9499,2021-10-07 15:06:41,1918
5e7cd5fbbb2c2c33153d372c,ma_choice_v2_pilot1,"",56,0,-1,-1,"Age of Building,Proximity to Waterfront/Beaches,Fireplace,Reputation of Closest School,Amount of Natural Light,Hardwood Floors,Size of Yard","Old,120 minutes,No,Very Bad,A lot of natural light,Yes,None","New,120 minutes,No,Moderate,Moderate natural light,No,None",0,10069,2021-10-07 15:06:43,1919
5e02204b2fc478db652b6466,ma_choice_v2_pilot1,"",2,0,-1,-1,"Hardwood Floors,Proximity to Cafes/Restaurants,Amount of Crime in Neighborhood,Climate of Area,Number of Bedrooms,Age of Building,Size of Home","No,20 min,Moderate,Moderate,3,Medium,1775 sq feet","Yes,5 min,Low,Moderate,3,Medium,1662 sq feet",1,7687,2021-10-07 15:06:50,1920
580fee689c444f0001cfa03a,ma_choice_v2_pilot1,"",9,0,-1,-1,"Hardwood Floors,Size of Home,Size of Garage,Washer/Dryer,Proximity to Cafes/Restaurants,Age of Building,Amount of Natural Light","Yes,1263 sq feet,Small,Yes,5 min,New,A lot of natural light","No,1008 sq feet,None,No,5 min,Medium,No natural light",0,17692,2021-10-07 15:06:51,1921
5e7cd5fbbb2c2c33153d372c,ma_choice_v2_pilot1,"",57,0,-1,-1,"Amount of Natural Light,Size of Home,Age of Building,Proximity to Cafes/Restaurants,Amount of Crime in Neighborhood,Climate of Area,Size of Garage","A lot of natural light,592 sq feet,Old,20 min,Very High,Bad,Small","A lot of natural light,1686 sq feet,Medium,10 min,Very High,Bad,None",1,7528,2021-10-07 15:06:51,1922
5e02204b2fc478db652b6466,ma_choice_v2_pilot1,"",3,0,-1,-1,"Size of Garage,Proximity to Waterfront/Beaches,Age of Building,Fireplace,Washer/Dryer,Proximity to Parks,Amount of Natural Light","None,90 minutes,Old,Yes,Yes,20 min,Moderate natural light","None,120 minutes,Old,No,No,10 min,No natural light",0,7620,2021-10-07 15:06:59,1923
5e7cd5fbbb2c2c33153d372c,ma_choice_v2_pilot1,"",58,0,-1,-1,"Washer/Dryer,Noise Pollution,Age of Building,Freshly Painted Exterior,Proximity to Cafes/Restaurants,Proximity to Waterfront/Beaches,Amount of Natural Light","Yes,Low,Medium,Yes,20 min,90 minutes,No natural light","No,High,New,No,10 min,30 min,A lot of natural light",1,7772,2021-10-07 15:07:00,1924
580fee689c444f0001cfa03a,ma_choice_v2_pilot1,"",10,0,-1,-1,"Age of Building,Proximity to Cafes/Restaurants,Number of Bedrooms,Amount of Natural Light,Amount of Crime in Neighborhood,Reputation of Closest School,Size of Garage","Medium,5 min,3,No natural light,Low,Good,Medium","Medium,5 min,2,A lot of natural light,High,Bad,Large",0,14904,2021-10-07 15:07:07,1925
5e7cd5fbbb2c2c33153d372c,ma_choice_v2_pilot1,"",59,0,-1,-1,"Amount of Natural Light,Noise Pollution,Reputation of Closest School,Size of Home,Hardwood Floors,Proximity to Waterfront/Beaches,Climate of Area","A little natural light,High,Good,763 sq feet,No,90 minutes,Moderate","Moderate natural light,High,Moderate,1428 sq feet,Yes,10 min,Moderate",1,7624,2021-10-07 15:07:09,1926
5e02204b2fc478db652b6466,ma_choice_v2_pilot1,"",4,0,-1,-1,"Noise Pollution,Amount of Natural Light,Age of Building,Reputation of Closest School,Fireplace,Washer/Dryer,Central AC","Low,No natural light,Medium,Very Bad,Yes,No,No","High,Moderate natural light,Medium,Bad,No,No,Yes",0,11306,2021-10-07 15:07:11,1927
5e7cd5fbbb2c2c33153d372c,ma_choice_v2_pilot1,"",60,0,-1,-1,"Proximity to Cafes/Restaurants,Central AC,Fireplace,Hardwood Floors,Size of Yard,Age of Building,Proximity to Parks","10 min,Yes,No,No,Medium,Old,10 min","5 min,Yes,Yes,No,None,New,5 min",1,8192,2021-10-07 15:07:18,1928
5e02204b2fc478db652b6466,ma_choice_v2_pilot1,"",5,0,-1,-1,"Fireplace,Size of Yard,Washer/Dryer,Climate of Area,Amount of Crime in Neighborhood,Central AC,Amount of Natural Light","No,Small,No,Very Good,Very Low,No,A lot of natural light","Yes,Large,Yes,Good,Moderate,Yes,Moderate natural light",1,12445,2021-10-07 15:07:24,1929
5e7cd5fbbb2c2c33153d372c,ma_choice_v2_pilot1,"",61,0,-1,-1,"Age of Building,Size of Garage,Size of Home,Proximity to Cafes/Restaurants,Climate of Area,Reputation of Closest School,Size of Yard","Medium,Small,805 sq feet,10 min,Moderate,Bad,Large","Old,None,541 sq feet,20 min,Very Bad,Very Good,Medium",0,9805,2021-10-07 15:07:29,1930
580fee689c444f0001cfa03a,ma_choice_v2_pilot1,"",11,0,-1,-1,"Freshly Painted Exterior,Climate of Area,Washer/Dryer,Proximity to Waterfront/Beaches,Noise Pollution,Proximity to Cafes/Restaurants,Central AC","Yes,Bad,No,120 minutes,High,20 min,Yes","No,Very Bad,Yes,90 minutes,High,10 min,Yes",0,21866,2021-10-07 15:07:29,1931
5e02204b2fc478db652b6466,ma_choice_v2_pilot1,"",6,0,-1,-1,"Freshly Painted Exterior,Fireplace,Number of Bedrooms,Proximity to Parks,Amount of Natural Light,Proximity to Waterfront/Beaches,Age of Building","No,Yes,3,5 min,No natural light,30 min,Medium","No,Yes,2,5 min,No natural light,10 min,Old",1,8424,2021-10-07 15:07:34,1932
5e7cd5fbbb2c2c33153d372c,ma_choice_v2_pilot1,"",62,0,-1,-1,"Size of Yard,Proximity to Parks,Size of Home,Number of Bedrooms,Size of Garage,Amount of Crime in Neighborhood,Proximity to Cafes/Restaurants","Small,5 min,1670 sq feet,1,Small,Very High,20 min","Large,10 min,554 sq feet,3,Medium,High,20 min",1,12512,2021-10-07 15:07:42,1933
5e02204b2fc478db652b6466,ma_choice_v2_pilot1,"",7,0,-1,-1,"Number of Bedrooms,Climate of Area,Fireplace,Noise Pollution,Size of Garage,Central AC,Reputation of Closest School","2,Bad,Yes,Medium,Medium,Yes,Moderate","1,Bad,Yes,High,Large,Yes,Bad",0,8280,2021-10-07 15:07:43,1934
5e7cd5fbbb2c2c33153d372c,ma_choice_v2_pilot1,"",63,0,-1,-1,"Number of Bedrooms,Hardwood Floors,Washer/Dryer,Reputation of Closest School,Noise Pollution,Amount of Crime in Neighborhood,Fireplace","3,No,Yes,Very Good,Low,Very High,Yes","2,Yes,Yes,Very Bad,Low,High,Yes",1,7498,2021-10-07 15:07:51,1935
5e02204b2fc478db652b6466,ma_choice_v2_pilot1,"",8,0,-1,-1,"Freshly Painted Exterior,Washer/Dryer,Fireplace,Size of Home,Hardwood Floors,Number of Bedrooms,Age of Building","Yes,Yes,No,428 sq feet,Yes,2,Medium","No,No,No,1172 sq feet,Yes,2,Old",0,7550,2021-10-07 15:07:52,1936
580fee689c444f0001cfa03a,ma_choice_v2_pilot1,"",12,0,-1,-1,"Amount of Crime in Neighborhood,Central AC,Number of Bedrooms,Amount of Natural Light,Proximity to Waterfront/Beaches,Size of Yard,Size of Garage","Moderate,Yes,1,A lot of natural light,120 minutes,None,Medium","Moderate,Yes,3,Moderate natural light,10 min,Large,Small",1,23810,2021-10-07 15:07:54,1937
5e7cd5fbbb2c2c33153d372c,ma_choice_v2_pilot1,"",64,0,-1,-1,"Washer/Dryer,Amount of Crime in Neighborhood,Size of Yard,Amount of Natural Light,Number of Bedrooms,Fireplace,Age of Building","No,Very Low,None,Moderate natural light,2,Yes,New","No,Very Low,Large,Moderate natural light,2,Yes,Medium",1,8533,2021-10-07 15:08:00,1938
5e02204b2fc478db652b6466,ma_choice_v2_pilot1,"",9,0,-1,-1,"Washer/Dryer,Freshly Painted Exterior,Fireplace,Proximity to Parks,Noise Pollution,Reputation of Closest School,Size of Yard","Yes,No,Yes,20 min,Medium,Very Good,Large","Yes,No,No,5 min,Medium,Very Good,Medium",0,9024,2021-10-07 15:08:02,1939
5deb9d5503356528d65d6bbb,ma_choice_v2_pilot1,"",0,1,-1,-1,"Climate of Area,Number of Bedrooms,Proximity to Waterfront/Beaches,Age of Building,Freshly Painted Exterior,Reputation of Closest School,Size of Yard","Moderate,1,10 min,New,Yes,Very Good,None","Very Good,2,60 min,Old,Yes,Very Good,None",0,27997,2021-10-07 15:08:05,1940
5e7cd5fbbb2c2c33153d372c,ma_choice_v2_pilot1,"",65,0,-1,-1,"Noise Pollution,Size of Garage,Age of Building,Size of Yard,Proximity to Parks,Central AC,Amount of Crime in Neighborhood","Medium,None,Medium,None,10 min,No,Very Low","Low,Small,Old,None,10 min,No,Low",0,9205,2021-10-07 15:08:10,1941
5e02204b2fc478db652b6466,ma_choice_v2_pilot1,"",10,0,-1,-1,"Size of Yard,Noise Pollution,Proximity to Waterfront/Beaches,Amount of Crime in Neighborhood,Age of Building,Hardwood Floors,Amount of Natural Light","Large,Low,90 minutes,Very Low,New,Yes,No natural light","Small,Medium,90 minutes,Very High,Old,No,A little natural light",0,9260,2021-10-07 15:08:12,1942
5deb9d5503356528d65d6bbb,ma_choice_v2_pilot1,"",1,1,-1,-1,"Number of Bedrooms,Reputation of Closest School,Freshly Painted Exterior,Central AC,Washer/Dryer,Climate of Area,Fireplace","3,Very Bad,No,No,Yes,Good,No","1,Very Bad,No,Yes,No,Very Good,No",0,8323,2021-10-07 15:08:14,1943
5e7cd5fbbb2c2c33153d372c,ma_choice_v2_pilot1,"",66,0,-1,-1,"Number of Bedrooms,Climate of Area,Freshly Painted Exterior,Amount of Crime in Neighborhood,Size of Garage,Size of Yard,Age of Building","3,Very Good,No,High,Medium,Large,New","2,Bad,No,Very High,Small,Large,Old",0,8134,2021-10-07 15:08:20,1944
5e02204b2fc478db652b6466,ma_choice_v2_pilot1,"",11,0,-1,-1,"Proximity to Parks,Central AC,Reputation of Closest School,Fireplace,Age of Building,Noise Pollution,Amount of Natural Light","5 min,Yes,Very Bad,No,New,Medium,A little natural light","10 min,No,Very Good,Yes,Medium,Low,Moderate natural light",1,8889,2021-10-07 15:08:22,1945
5deb9d5503356528d65d6bbb,ma_choice_v2_pilot1,"",2,1,-1,-1,"Climate of Area,Central AC,Size of Yard,Proximity to Parks,Age of Building,Size of Garage,Fireplace","Very Good,Yes,Medium,5 min,Medium,Small,Yes","Good,Yes,Small,10 min,New,Medium,No",0,12241,2021-10-07 15:08:27,1946
5e7cd5fbbb2c2c33153d372c,ma_choice_v2_pilot1,"",67,0,-1,-1,"Proximity to Waterfront/Beaches,Hardwood Floors,Freshly Painted Exterior,Central AC,Size of Home,Climate of Area,Noise Pollution","90 minutes,Yes,No,Yes,1469 sq feet,Very Good,Low","30 min,No,Yes,No,1318 sq feet,Very Bad,High",0,7458,2021-10-07 15:08:28,1947
5e02204b2fc478db652b6466,ma_choice_v2_pilot1,"",12,0,-1,-1,"Freshly Painted Exterior,Size of Garage,Central AC,Noise Pollution,Proximity to Cafes/Restaurants,Amount of Natural Light,Hardwood Floors","No,Medium,No,Medium,5 min,A lot of natural light,Yes","Yes,Large,No,Medium,10 min,Moderate natural light,No",0,7960,2021-10-07 15:08:31,1948
580fee689c444f0001cfa03a,ma_choice_v2_pilot1,"",13,0,-1,-1,"Hardwood Floors,Central AC,Age of Building,Size of Home,Proximity to Waterfront/Beaches,Number of Bedrooms,Amount of Natural Light","Yes,Yes,New,519 sq feet,30 min,3,Moderate natural light","No,Yes,New,1655 sq feet,90 minutes,2,A lot of natural light",1,36022,2021-10-07 15:08:31,1949
5e7cd5fbbb2c2c33153d372c,ma_choice_v2_pilot1,"",68,0,-1,-1,"Proximity to Cafes/Restaurants,Proximity to Waterfront/Beaches,Hardwood Floors,Age of Building,Amount of Crime in Neighborhood,Climate of Area,Amount of Natural Light","20 min,10 min,No,Medium,High,Very Good,A little natural light","10 min,60 min,Yes,Old,High,Moderate,A lot of natural light",1,8773,2021-10-07 15:08:38,1950
5e02204b2fc478db652b6466,ma_choice_v2_pilot1,"",13,0,-1,-1,"Fireplace,Number of Bedrooms,Washer/Dryer,Reputation of Closest School,Hardwood Floors,Freshly Painted Exterior,Age of Building","Yes,1,No,Good,No,Yes,Old","No,3,No,Bad,Yes,Yes,Old",0,7981,2021-10-07 15:08:40,1951
5deb9d5503356528d65d6bbb,ma_choice_v2_pilot1,"",3,1,-1,-1,"Size of Home,Age of Building,Size of Yard,Central AC,Amount of Natural Light,Fireplace,Proximity to Cafes/Restaurants","491 sq feet,Old,None,Yes,A little natural light,Yes,5 min","1608 sq feet,Medium,None,No,A little natural light,No,10 min",1,15625,2021-10-07 15:08:44,1952
580fee689c444f0001cfa03a,ma_choice_v2_pilot1,"",14,0,-1,-1,"Proximity to Cafes/Restaurants,Size of Yard,Size of Garage,Proximity to Parks,Noise Pollution,Freshly Painted Exterior,Size of Home","20 min,Medium,Medium,5 min,Low,No,1045 sq feet","20 min,None,None,5 min,High,No,1516 sq feet",0,15150,2021-10-07 15:08:47,1953
5e02204b2fc478db652b6466,ma_choice_v2_pilot1,"",14,0,-1,-1,"Proximity to Parks,Size of Home,Freshly Painted Exterior,Proximity to Waterfront/Beaches,Hardwood Floors,Proximity to Cafes/Restaurants,Noise Pollution","10 min,1622 sq feet,Yes,10 min,No,5 min,Low","5 min,1230 sq feet,No,90 minutes,No,10 min,Low",0,7759,2021-10-07 15:08:49,1954
5e7cd5fbbb2c2c33153d372c,ma_choice_v2_pilot1,"",69,0,-1,-1,"Freshly Painted Exterior,Reputation of Closest School,Central AC,Climate of Area,Size of Home,Washer/Dryer,Size of Yard","Yes,Very Bad,Yes,Very Bad,771 sq feet,No,Small","Yes,Bad,No,Moderate,1143 sq feet,No,Small",1,12214,2021-10-07 15:08:51,1955
5deb9d5503356528d65d6bbb,ma_choice_v2_pilot1,"",4,1,-1,-1,"Amount of Natural Light,Proximity to Parks,Size of Yard,Central AC,Number of Bedrooms,Fireplace,Age of Building","A lot of natural light,10 min,Small,No,2,Yes,Medium","No natural light,5 min,Small,No,1,Yes,Old",0,8885,2021-10-07 15:08:54,1956
5e02204b2fc478db652b6466,ma_choice_v2_pilot1,"",15,0,-1,-1,"Proximity to Cafes/Restaurants,Age of Building,Climate of Area,Freshly Painted Exterior,Noise Pollution,Size of Home,Reputation of Closest School","10 min,New,Very Bad,No,Medium,1844 sq feet,Moderate","5 min,New,Bad,Yes,High,847 sq feet,Bad",0,13742,2021-10-07 15:09:03,1957
580fee689c444f0001cfa03a,ma_choice_v2_pilot1,"",15,0,-1,-1,"Amount of Natural Light,Size of Garage,Reputation of Closest School,Central AC,Size of Home,Proximity to Parks,Age of Building","A little natural light,None,Bad,No,1135 sq feet,5 min,Old","A little natural light,None,Good,Yes,1078 sq feet,10 min,New",1,16514,2021-10-07 15:09:05,1958
5e7cd5fbbb2c2c33153d372c,ma_choice_v2_pilot1,"",70,0,-1,-1,"Proximity to Waterfront/Beaches,Proximity to Cafes/Restaurants,Size of Yard,Amount of Crime in Neighborhood,Amount of Natural Light,Age of Building,Proximity to Parks","30 min,10 min,Medium,Very Low,Moderate natural light,Medium,20 min","90 minutes,20 min,Medium,Very High,A lot of natural light,Medium,5 min",0,13326,2021-10-07 15:09:05,1959
5e02204b2fc478db652b6466,ma_choice_v2_pilot1,"",16,0,-1,-1,"Size of Garage,Number of Bedrooms,Fireplace,Amount of Crime in Neighborhood,Reputation of Closest School,Hardwood Floors,Washer/Dryer","Large,2,Yes,High,Bad,Yes,No","Small,1,No,High,Very Good,No,Yes",0,7981,2021-10-07 15:09:12,1960
5e7cd5fbbb2c2c33153d372c,ma_choice_v2_pilot1,"",71,0,-1,-1,"Climate of Area,Amount of Natural Light,Size of Home,Proximity to Cafes/Restaurants,Reputation of Closest School,Size of Garage,Washer/Dryer","Bad,Moderate natural light,1683 sq feet,10 min,Very Bad,Small,Yes","Bad,No natural light,1005 sq feet,10 min,Very Good,Small,No",0,8871,2021-10-07 15:09:15,1961
5deb9d5503356528d65d6bbb,ma_choice_v2_pilot1,"",5,1,-1,-1,"Proximity to Waterfront/Beaches,Proximity to Cafes/Restaurants,Noise Pollution,Proximity to Parks,Washer/Dryer,Central AC,Size of Home","30 min,10 min,Medium,5 min,Yes,No,1243 sq feet","10 min,20 min,Low,5 min,No,No,1979 sq feet",1,23913,2021-10-07 15:09:19,1962
5e02204b2fc478db652b6466,ma_choice_v2_pilot1,"",17,0,-1,-1,"Hardwood Floors,Reputation of Closest School,Size of Home,Freshly Painted Exterior,Central AC,Noise Pollution,Amount of Natural Light","No,Bad,811 sq feet,Yes,No,Medium,No natural light","No,Moderate,1433 sq feet,Yes,Yes,Low,Moderate natural light",1,8836,2021-10-07 15:09:22,1963
5e7cd5fbbb2c2c33153d372c,ma_choice_v2_pilot1,"",72,0,-1,-1,"Freshly Painted Exterior,Size of Yard,Size of Garage,Noise Pollution,Age of Building,Fireplace,Size of Home","No,Small,Medium,Low,Medium,Yes,1242 sq feet","Yes,Medium,None,Low,Medium,Yes,1128 sq feet",0,11793,2021-10-07 15:09:28,1964
5e02204b2fc478db652b6466,ma_choice_v2_pilot1,"",18,0,-1,-1,"Reputation of Closest School,Amount of Natural Light,Climate of Area,Central AC,Number of Bedrooms,Washer/Dryer,Size of Yard","Bad,No natural light,Good,No,1,No,Small","Very Bad,A little natural light,Bad,Yes,1,Yes,None",0,7706,2021-10-07 15:09:31,1965
580fee689c444f0001cfa03a,ma_choice_v2_pilot1,"",16,0,-1,-1,"Proximity to Parks,Size of Home,Size of Garage,Amount of Natural Light,Central AC,Age of Building,Freshly Painted Exterior","10 min,1902 sq feet,Medium,Moderate natural light,Yes,Old,No","20 min,606 sq feet,Small,A lot of natural light,Yes,New,No",0,27212,2021-10-07 15:09:33,1966
5e7cd5fbbb2c2c33153d372c,ma_choice_v2_pilot1,"",73,0,-1,-1,"Washer/Dryer,Climate of Area,Freshly Painted Exterior,Size of Home,Amount of Natural Light,Age of Building,Proximity to Parks","No,Moderate,No,1905 sq feet,A lot of natural light,New,10 min","No,Very Bad,No,400 sq feet,A lot of natural light,Medium,20 min",0,7500,2021-10-07 15:09:37,1967
5e02204b2fc478db652b6466,ma_choice_v2_pilot1,"",19,0,-1,-1,"Age of Building,Reputation of Closest School,Climate of Area,Size of Home,Hardwood Floors,Number of Bedrooms,Central AC","New,Good,Good,701 sq feet,No,3,No","New,Good,Bad,674 sq feet,No,1,Yes",0,7423,2021-10-07 15:09:39,1968
5e7cd5fbbb2c2c33153d372c,ma_choice_v2_pilot1,"",74,0,-1,-1,"Proximity to Cafes/Restaurants,Fireplace,Number of Bedrooms,Climate of Area,Age of Building,Size of Home,Proximity to Waterfront/Beaches","20 min,No,2,Very Good,New,1268 sq feet,60 min","20 min,Yes,1,Very Good,Medium,1324 sq feet,10 min",0,10123,2021-10-07 15:09:48,1969
5e02204b2fc478db652b6466,ma_choice_v2_pilot1,"",20,0,-1,-1,"Size of Yard,Number of Bedrooms,Noise Pollution,Reputation of Closest School,Washer/Dryer,Fireplace,Size of Home","None,1,Medium,Good,No,Yes,1989 sq feet","None,3,High,Good,Yes,No,930 sq feet",1,7602,2021-10-07 15:09:48,1970
5e02204b2fc478db652b6466,ma_choice_v2_pilot1,"",21,0,-1,-1,"Proximity to Cafes/Restaurants,Number of Bedrooms,Proximity to Parks,Hardwood Floors,Freshly Painted Exterior,Size of Garage,Washer/Dryer","5 min,1,20 min,Yes,Yes,None,No","5 min,1,20 min,Yes,Yes,Medium,No",1,7562,2021-10-07 15:09:57,1971
580fee689c444f0001cfa03a,ma_choice_v2_pilot1,"",17,0,-1,-1,"Proximity to Cafes/Restaurants,Amount of Natural Light,Amount of Crime in Neighborhood,Size of Garage,Proximity to Waterfront/Beaches,Climate of Area,Number of Bedrooms","5 min,Moderate natural light,Low,Large,60 min,Bad,1","5 min,Moderate natural light,High,None,10 min,Good,2",0,27204,2021-10-07 15:10:01,1972
5e02204b2fc478db652b6466,ma_choice_v2_pilot1,"",22,0,-1,-1,"Number of Bedrooms,Proximity to Parks,Size of Home,Amount of Natural Light,Age of Building,Hardwood Floors,Central AC","2,20 min,914 sq feet,A lot of natural light,Old,No,No","1,10 min,1945 sq feet,No natural light,New,Yes,Yes",0,9208,2021-10-07 15:10:07,1973
5e02204b2fc478db652b6466,ma_choice_v2_pilot1,"",23,0,-1,-1,"Freshly Painted Exterior,Proximity to Parks,Size of Home,Number of Bedrooms,Central AC,Hardwood Floors,Climate of Area","Yes,10 min,1707 sq feet,2,No,Yes,Good","No,10 min,1509 sq feet,2,Yes,Yes,Bad",0,7529,2021-10-07 15:10:15,1974
5e02204b2fc478db652b6466,ma_choice_v2_pilot1,"",24,0,-1,-1,"Size of Home,Number of Bedrooms,Fireplace,Central AC,Age of Building,Proximity to Parks,Size of Garage","1299 sq feet,3,Yes,Yes,Old,20 min,None","1389 sq feet,1,Yes,Yes,Medium,10 min,Large",1,7479,2021-10-07 15:10:24,1975
5e02204b2fc478db652b6466,ma_choice_v2_pilot1,"",25,0,-1,-1,"Proximity to Waterfront/Beaches,Reputation of Closest School,Climate of Area,Size of Home,Size of Garage,Fireplace,Hardwood Floors","60 min,Bad,Very Bad,666 sq feet,None,No,No","60 min,Very Bad,Very Good,1008 sq feet,Small,No,No",1,7751,2021-10-07 15:10:33,1976
580fee689c444f0001cfa03a,ma_choice_v2_pilot1,"",18,0,-1,-1,"Size of Home,Freshly Painted Exterior,Hardwood Floors,Reputation of Closest School,Size of Garage,Proximity to Cafes/Restaurants,Amount of Natural Light","575 sq feet,Yes,Yes,Bad,Medium,20 min,A little natural light","645 sq feet,Yes,Yes,Very Bad,Small,10 min,Moderate natural light",1,33539,2021-10-07 15:10:36,1977
5e02204b2fc478db652b6466,ma_choice_v2_pilot1,"",26,0,-1,-1,"Central AC,Amount of Natural Light,Hardwood Floors,Freshly Painted Exterior,Size of Garage,Proximity to Cafes/Restaurants,Washer/Dryer","No,A lot of natural light,Yes,Yes,Small,10 min,Yes","Yes,Moderate natural light,No,No,Small,20 min,No",0,8325,2021-10-07 15:10:42,1978
5e02204b2fc478db652b6466,ma_choice_v2_pilot1,"",27,0,-1,-1,"Number of Bedrooms,Hardwood Floors,Climate of Area,Amount of Crime in Neighborhood,Amount of Natural Light,Age of Building,Size of Garage","1,No,Very Bad,Very Low,A lot of natural light,New,Small","1,No,Bad,High,Moderate natural light,Medium,Large",1,7570,2021-10-07 15:10:51,1979
5a57c541acc75b00017a2a27,ma_choice_v2_pilot1,"",0,1,-1,-1,"Fireplace,Proximity to Parks,Amount of Natural Light,Age of Building,Reputation of Closest School,Size of Garage,Amount of Crime in Neighborhood","No,20 min,A little natural light,New,Good,None,Moderate","No,20 min,No natural light,Old,Bad,None,High",0,10262,2021-10-07 15:10:52,1980
5e02204b2fc478db652b6466,ma_choice_v2_pilot1,"",28,0,-1,-1,"Size of Garage,Size of Home,Number of Bedrooms,Washer/Dryer,Hardwood Floors,Freshly Painted Exterior,Amount of Crime in Neighborhood","None,1272 sq feet,1,No,Yes,Yes,Low","Small,1026 sq feet,3,Yes,Yes,No,Very High",0,8487,2021-10-07 15:11:00,1981
580fee689c444f0001cfa03a,ma_choice_v2_pilot1,"",19,0,-1,-1,"Reputation of Closest School,Freshly Painted Exterior,Size of Garage,Proximity to Parks,Size of Home,Proximity to Waterfront/Beaches,Size of Yard","Very Bad,Yes,Large,10 min,433 sq feet,60 min,Small","Very Good,Yes,Large,10 min,1915 sq feet,120 minutes,Large",1,31741,2021-10-07 15:11:09,1982
5e02204b2fc478db652b6466,ma_choice_v2_pilot1,"",29,0,-1,-1,"Fireplace,Number of Bedrooms,Proximity to Cafes/Restaurants,Amount of Natural Light,Climate of Area,Central AC,Freshly Painted Exterior","Yes,3,20 min,No natural light,Very Bad,Yes,No","Yes,1,10 min,A lot of natural light,Moderate,Yes,Yes",1,7714,2021-10-07 15:11:09,1983
5a57c541acc75b00017a2a27,ma_choice_v2_pilot1,"",1,1,-1,-1,"Climate of Area,Proximity to Cafes/Restaurants,Number of Bedrooms,Size of Garage,Central AC,Fireplace,Hardwood Floors","Very Bad,10 min,3,Large,Yes,Yes,Yes","Good,10 min,1,None,Yes,Yes,No",0,16836,2021-10-07 15:11:10,1984
5deb9d5503356528d65d6bbb,ma_choice_v2_pilot1,"",6,1,-1,-1,"Noise Pollution,Amount of Crime in Neighborhood,Fireplace,Freshly Painted Exterior,Central AC,Washer/Dryer,Proximity to Parks","High,Very High,Yes,No,Yes,No,5 min","Low,Very High,Yes,No,No,No,10 min",1,115577,2021-10-07 15:11:15,1985
5e02204b2fc478db652b6466,ma_choice_v2_pilot1,"",30,0,-1,-1,"Size of Home,Amount of Crime in Neighborhood,Amount of Natural Light,Freshly Painted Exterior,Climate of Area,Reputation of Closest School,Proximity to Parks","1074 sq feet,Very Low,A little natural light,No,Bad,Very Bad,20 min","458 sq feet,Low,No natural light,No,Good,Good,5 min",1,9605,2021-10-07 15:11:19,1986
5e02204b2fc478db652b6466,ma_choice_v2_pilot1,"",31,0,-1,-1,"Amount of Crime in Neighborhood,Amount of Natural Light,Noise Pollution,Proximity to Cafes/Restaurants,Proximity to Parks,Central AC,Reputation of Closest School","Moderate,A little natural light,High,5 min,10 min,Yes,Very Good","Moderate,Moderate natural light,Medium,20 min,10 min,No,Very Good",1,7571,2021-10-07 15:11:28,1987
5a57c541acc75b00017a2a27,ma_choice_v2_pilot1,"",2,1,-1,-1,"Noise Pollution,Fireplace,Size of Yard,Proximity to Waterfront/Beaches,Size of Home,Reputation of Closest School,Climate of Area","Medium,No,None,30 min,977 sq feet,Bad,Bad","Low,Yes,Large,120 minutes,1165 sq feet,Very Bad,Bad",1,24726,2021-10-07 15:11:35,1988
5e02204b2fc478db652b6466,ma_choice_v2_pilot1,"",32,0,-1,-1,"Reputation of Closest School,Fireplace,Noise Pollution,Size of Yard,Size of Home,Number of Bedrooms,Proximity to Waterfront/Beaches","Good,No,Low,Large,857 sq feet,2,10 min","Bad,Yes,High,None,1513 sq feet,3,90 minutes",0,7417,2021-10-07 15:11:36,1989
5deb9d5503356528d65d6bbb,ma_choice_v2_pilot1,"",7,1,-1,-1,"Proximity to Parks,Proximity to Waterfront/Beaches,Size of Home,Fireplace,Central AC,Size of Yard,Age of Building","10 min,60 min,833 sq feet,Yes,No,None,New","10 min,60 min,686 sq feet,No,Yes,Small,Medium",0,27001,2021-10-07 15:11:43,1990
5e02204b2fc478db652b6466,ma_choice_v2_pilot1,"",33,0,-1,-1,"Freshly Painted Exterior,Size of Home,Proximity to Waterfront/Beaches,Hardwood Floors,Amount of Crime in Neighborhood,Noise Pollution,Age of Building","No,1288 sq feet,60 min,No,High,Medium,Old","No,765 sq feet,120 minutes,Yes,Very High,Medium,New",0,7532,2021-10-07 15:11:45,1991
5a57c541acc75b00017a2a27,ma_choice_v2_pilot1,"",3,1,-1,-1,"Proximity to Parks,Central AC,Size of Garage,Size of Yard,Hardwood Floors,Reputation of Closest School,Freshly Painted Exterior","20 min,No,None,None,No,Bad,No","10 min,Yes,Small,Medium,Yes,Very Good,No",1,9608,2021-10-07 15:11:46,1992
580fee689c444f0001cfa03a,ma_choice_v2_pilot1,"",20,0,-1,-1,"Size of Yard,Size of Home,Noise Pollution,Proximity to Cafes/Restaurants,Washer/Dryer,Fireplace,Central AC","Large,899 sq feet,Medium,20 min,Yes,No,Yes","Medium,1120 sq feet,Medium,20 min,No,No,No",0,38979,2021-10-07 15:11:49,1993
5e02204b2fc478db652b6466,ma_choice_v2_pilot1,"",34,0,-1,-1,"Fireplace,Number of Bedrooms,Age of Building,Proximity to Parks,Size of Yard,Washer/Dryer,Proximity to Cafes/Restaurants","No,1,Old,20 min,Large,No,10 min","Yes,3,Old,5 min,Large,No,20 min",0,7933,2021-10-07 15:11:54,1994
5a57c541acc75b00017a2a27,ma_choice_v2_pilot1,"",4,1,-1,-1,"Noise Pollution,Proximity to Cafes/Restaurants,Size of Home,Amount of Natural Light,Hardwood Floors,Reputation of Closest School,Climate of Area","Low,5 min,1491 sq feet,A lot of natural light,No,Good,Good","High,10 min,435 sq feet,Moderate natural light,No,Very Bad,Very Good",0,9513,2021-10-07 15:11:57,1995
580fee689c444f0001cfa03a,ma_choice_v2_pilot1,"",21,0,-1,-1,"Proximity to Waterfront/Beaches,Amount of Crime in Neighborhood,Size of Yard,Hardwood Floors,Reputation of Closest School,Proximity to Parks,Size of Home","10 min,High,None,No,Bad,10 min,988 sq feet","30 min,Low,Small,Yes,Good,20 min,596 sq feet",1,13381,2021-10-07 15:12:03,1996
5e02204b2fc478db652b6466,ma_choice_v2_pilot1,"",35,0,-1,-1,"Size of Yard,Proximity to Parks,Freshly Painted Exterior,Hardwood Floors,Washer/Dryer,Amount of Natural Light,Size of Home","Small,10 min,No,No,No,A little natural light,1920 sq feet","Large,20 min,Yes,No,Yes,Moderate natural light,567 sq feet",1,8914,2021-10-07 15:12:04,1997
5deb9d5503356528d65d6bbb,ma_choice_v2_pilot1,"",8,1,-1,-1,"Freshly Painted Exterior,Proximity to Cafes/Restaurants,Age of Building,Size of Home,Proximity to Waterfront/Beaches,Proximity to Parks,Size of Garage","Yes,20 min,New,606 sq feet,60 min,5 min,Large","No,20 min,New,826 sq feet,30 min,5 min,Small",0,27881,2021-10-07 15:12:12,1998
5a57c541acc75b00017a2a27,ma_choice_v2_pilot1,"",5,1,-1,-1,"Climate of Area,Proximity to Cafes/Restaurants,Freshly Painted Exterior,Proximity to Parks,Size of Home,Central AC,Number of Bedrooms","Very Bad,10 min,Yes,10 min,1630 sq feet,No,1","Bad,20 min,No,5 min,655 sq feet,Yes,3",0,14484,2021-10-07 15:12:12,1999
5e02204b2fc478db652b6466,ma_choice_v2_pilot1,"",36,0,-1,-1,"Washer/Dryer,Proximity to Parks,Reputation of Closest School,Fireplace,Freshly Painted Exterior,Noise Pollution,Central AC","Yes,20 min,Bad,Yes,No,Low,No","Yes,20 min,Very Bad,Yes,Yes,Medium,No",0,7569,2021-10-07 15:12:12,2000
580fee689c444f0001cfa03a,ma_choice_v2_pilot1,"",22,0,-1,-1,"Washer/Dryer,Proximity to Cafes/Restaurants,Noise Pollution,Amount of Crime in Neighborhood,Size of Home,Reputation of Closest School,Age of Building","Yes,20 min,High,Very High,1877 sq feet,Good,Old","No,5 min,Medium,Very Low,1775 sq feet,Bad,Medium",1,14342,2021-10-07 15:12:18,2001
5df6304773d724428a9cff45,ma_choice_v2_pilot1,"",0,1,-1,-1,"Central AC,Fireplace,Reputation of Closest School,Amount of Crime in Neighborhood,Climate of Area,Size of Garage,Size of Home","Yes,No,Very Good,Very High,Moderate,None,1323 sq feet","Yes,Yes,Moderate,Low,Good,Small,867 sq feet",1,18016,2021-10-07 15:12:22,2002
5e02204b2fc478db652b6466,ma_choice_v2_pilot1,"",37,0,-1,-1,"Amount of Crime in Neighborhood,Fireplace,Size of Home,Amount of Natural Light,Hardwood Floors,Proximity to Waterfront/Beaches,Proximity to Cafes/Restaurants","Very Low,Yes,1556 sq feet,Moderate natural light,No,120 minutes,5 min","Moderate,Yes,556 sq feet,Moderate natural light,No,90 minutes,20 min",1,8940,2021-10-07 15:12:22,2003
5a57c541acc75b00017a2a27,ma_choice_v2_pilot1,"",6,1,-1,-1,"Age of Building,Number of Bedrooms,Size of Garage,Size of Home,Proximity to Waterfront/Beaches,Climate of Area,Fireplace","Medium,1,Medium,511 sq feet,90 minutes,Very Good,Yes","New,1,Medium,869 sq feet,10 min,Very Bad,No",1,10386,2021-10-07 15:12:23,2004
5e02204b2fc478db652b6466,ma_choice_v2_pilot1,"",38,0,-1,-1,"Hardwood Floors,Age of Building,Washer/Dryer,Central AC,Number of Bedrooms,Size of Home,Proximity to Parks","Yes,Old,No,Yes,1,1124 sq feet,10 min","No,Old,Yes,No,3,1090 sq feet,20 min",1,7459,2021-10-07 15:12:31,2005
5deb9d5503356528d65d6bbb,ma_choice_v2_pilot1,"",9,1,-1,-1,"Amount of Natural Light,Age of Building,Reputation of Closest School,Hardwood Floors,Number of Bedrooms,Central AC,Washer/Dryer","A lot of natural light,New,Very Good,Yes,1,No,Yes","Moderate natural light,Medium,Good,No,1,No,No",0,23881,2021-10-07 15:12:37,2006
580fee689c444f0001cfa03a,ma_choice_v2_pilot1,"",23,0,-1,-1,"Washer/Dryer,Reputation of Closest School,Hardwood Floors,Size of Home,Size of Garage,Age of Building,Amount of Natural Light","No,Moderate,No,1149 sq feet,Small,New,A lot of natural light","No,Very Bad,Yes,1143 sq feet,Large,Old,Moderate natural light",0,17886,2021-10-07 15:12:37,2007
5a57c541acc75b00017a2a27,ma_choice_v2_pilot1,"",7,1,-1,-1,"Climate of Area,Washer/Dryer,Proximity to Waterfront/Beaches,Reputation of Closest School,Amount of Crime in Neighborhood,Proximity to Cafes/Restaurants,Central AC","Moderate,Yes,10 min,Bad,Moderate,20 min,Yes","Moderate,Yes,120 minutes,Moderate,High,5 min,No",0,14499,2021-10-07 15:12:39,2008
5e02204b2fc478db652b6466,ma_choice_v2_pilot1,"",39,0,-1,-1,"Central AC,Amount of Natural Light,Noise Pollution,Climate of Area,Freshly Painted Exterior,Number of Bedrooms,Proximity to Waterfront/Beaches","No,A little natural light,High,Good,No,3,30 min","No,A little natural light,Low,Bad,Yes,3,120 minutes",1,7956,2021-10-07 15:12:40,2009
5df6304773d724428a9cff45,ma_choice_v2_pilot1,"",1,1,-1,-1,"Central AC,Reputation of Closest School,Hardwood Floors,Washer/Dryer,Freshly Painted Exterior,Proximity to Waterfront/Beaches,Age of Building","No,Good,Yes,No,Yes,120 minutes,Old","Yes,Bad,No,Yes,No,10 min,Old",1,20528,2021-10-07 15:12:44,2010
5e02204b2fc478db652b6466,ma_choice_v2_pilot1,"",40,0,-1,-1,"Size of Yard,Size of Garage,Central AC,Size of Home,Hardwood Floors,Freshly Painted Exterior,Proximity to Parks","None,Medium,No,613 sq feet,Yes,No,10 min","Small,Medium,Yes,1222 sq feet,No,No,10 min",1,8106,2021-10-07 15:12:49,2011
580fee689c444f0001cfa03a,ma_choice_v2_pilot1,"",24,0,-1,-1,"Freshly Painted Exterior,Size of Yard,Amount of Crime in Neighborhood,Number of Bedrooms,Proximity to Parks,Noise Pollution,Fireplace","Yes,None,Moderate,2,20 min,High,Yes","No,Large,Very Low,2,20 min,Medium,Yes",1,15292,2021-10-07 15:12:54,2012
5df6304773d724428a9cff45,ma_choice_v2_pilot1,"",2,1,-1,-1,"Amount of Natural Light,Number of Bedrooms,Fireplace,Proximity to Waterfront/Beaches,Climate of Area,Size of Garage,Proximity to Cafes/Restaurants","No natural light,1,Yes,10 min,Very Good,Large,20 min","A little natural light,3,Yes,90 minutes,Very Bad,None,10 min",0,11891,2021-10-07 15:12:56,2013
5e02204b2fc478db652b6466,ma_choice_v2_pilot1,"",41,0,-1,-1,"Proximity to Waterfront/Beaches,Proximity to Parks,Noise Pollution,Size of Home,Proximity to Cafes/Restaurants,Age of Building,Reputation of Closest School","10 min,20 min,Low,838 sq feet,10 min,New,Very Good","60 min,5 min,Medium,403 sq feet,10 min,Medium,Moderate",0,7386,2021-10-07 15:12:57,2014
5a57c541acc75b00017a2a27,ma_choice_v2_pilot1,"",8,1,-1,-1,"Noise Pollution,Age of Building,Proximity to Parks,Washer/Dryer,Reputation of Closest School,Size of Home,Central AC","Low,Medium,20 min,No,Moderate,1681 sq feet,No","Medium,New,10 min,Yes,Very Good,877 sq feet,Yes",1,18048,2021-10-07 15:12:58,2015
5e02204b2fc478db652b6466,ma_choice_v2_pilot1,"",42,0,-1,-1,"Amount of Crime in Neighborhood,Size of Yard,Proximity to Cafes/Restaurants,Size of Home,Age of Building,Proximity to Waterfront/Beaches,Proximity to Parks","Low,Small,5 min,1883 sq feet,Old,120 minutes,5 min","Very Low,None,20 min,498 sq feet,Medium,30 min,5 min",0,7477,2021-10-07 15:13:06,2016
5a57c541acc75b00017a2a27,ma_choice_v2_pilot1,"",9,1,-1,-1,"Age of Building,Climate of Area,Amount of Crime in Neighborhood,Freshly Painted Exterior,Reputation of Closest School,Washer/Dryer,Hardwood Floors","New,Very Good,Moderate,No,Moderate,Yes,Yes","Old,Bad,Moderate,Yes,Moderate,Yes,Yes",0,12487,2021-10-07 15:13:12,2017
5e02204b2fc478db652b6466,ma_choice_v2_pilot1,"",43,0,-1,-1,"Amount of Crime in Neighborhood,Amount of Natural Light,Size of Home,Size of Garage,Central AC,Proximity to Cafes/Restaurants,Proximity to Parks","Very High,A little natural light,1833 sq feet,Medium,Yes,20 min,5 min","Very High,No natural light,492 sq feet,Large,No,20 min,5 min",0,7642,2021-10-07 15:13:14,2018
5df6304773d724428a9cff45,ma_choice_v2_pilot1,"",3,1,-1,-1,"Proximity to Waterfront/Beaches,Central AC,Amount of Crime in Neighborhood,Climate of Area,Hardwood Floors,Fireplace,Size of Yard","90 minutes,No,High,Good,No,No,None","90 minutes,Yes,Low,Bad,Yes,No,Small",0,17687,2021-10-07 15:13:15,2019
580fee689c444f0001cfa03a,ma_choice_v2_pilot1,"",25,0,-1,-1,"Fireplace,Proximity to Waterfront/Beaches,Proximity to Cafes/Restaurants,Climate of Area,Noise Pollution,Size of Garage,Hardwood Floors","Yes,30 min,20 min,Moderate,Low,Medium,Yes","Yes,10 min,5 min,Very Good,High,Small,No",0,26546,2021-10-07 15:13:21,2020
5e02204b2fc478db652b6466,ma_choice_v2_pilot1,"",44,0,-1,-1,"Size of Yard,Number of Bedrooms,Age of Building,Climate of Area,Fireplace,Central AC,Freshly Painted Exterior","Small,2,New,Moderate,Yes,Yes,Yes","Medium,2,Medium,Very Good,Yes,Yes,Yes",0,7978,2021-10-07 15:13:23,2021
5df6304773d724428a9cff45,ma_choice_v2_pilot1,"",4,1,-1,-1,"Proximity to Waterfront/Beaches,Freshly Painted Exterior,Hardwood Floors,Reputation of Closest School,Washer/Dryer,Size of Home,Age of Building","120 minutes,No,No,Moderate,No,783 sq feet,Old","30 min,Yes,No,Good,Yes,1753 sq feet,New",1,10928,2021-10-07 15:13:27,2022
5deb9d5503356528d65d6bbb,ma_choice_v2_pilot1,"",0,0,-1,-1,"Hardwood Floors,Size of Garage,Number of Bedrooms,Amount of Natural Light,Age of Building,Freshly Painted Exterior,Proximity to Cafes/Restaurants","No,None,3,A little natural light,Medium,No,5 min","Yes,Small,1,Moderate natural light,Medium,No,20 min",1,25601,2021-10-07 15:13:30,2023
5e02204b2fc478db652b6466,ma_choice_v2_pilot1,"",45,0,-1,-1,"Central AC,Freshly Painted Exterior,Size of Yard,Amount of Crime in Neighborhood,Amount of Natural Light,Reputation of Closest School,Noise Pollution","Yes,No,Medium,Low,Moderate natural light,Good,High","Yes,Yes,Small,Very Low,A lot of natural light,Bad,Medium",1,9153,2021-10-07 15:13:34,2024
5a57c541acc75b00017a2a27,ma_choice_v2_pilot1,"",0,0,-1,-1,"Amount of Crime in Neighborhood,Fireplace,Proximity to Parks,Freshly Painted Exterior,Central AC,Proximity to Cafes/Restaurants,Proximity to Waterfront/Beaches","Very High,No,20 min,No,No,5 min,120 minutes","Low,No,5 min,Yes,Yes,20 min,10 min",1,12420,2021-10-07 15:13:36,2025
5df6304773d724428a9cff45,ma_choice_v2_pilot1,"",5,1,-1,-1,"Proximity to Parks,Fireplace,Size of Home,Hardwood Floors,Central AC,Amount of Natural Light,Reputation of Closest School","5 min,No,1967 sq feet,Yes,No,A little natural light,Bad","20 min,No,890 sq feet,No,No,No natural light,Very Good",0,12597,2021-10-07 15:13:41,2026
5e02204b2fc478db652b6466,ma_choice_v2_pilot1,"",46,0,-1,-1,"Amount of Natural Light,Freshly Painted Exterior,Reputation of Closest School,Proximity to Parks,Number of Bedrooms,Hardwood Floors,Size of Yard","A lot of natural light,No,Moderate,5 min,1,Yes,Medium","A little natural light,No,Bad,5 min,1,No,Large",0,7586,2021-10-07 15:13:42,2027
5deb9d5503356528d65d6bbb,ma_choice_v2_pilot1,"",1,0,-1,-1,"Size of Yard,Size of Garage,Proximity to Parks,Freshly Painted Exterior,Hardwood Floors,Proximity to Waterfront/Beaches,Central AC","None,None,10 min,No,Yes,90 minutes,Yes","Large,Medium,5 min,No,Yes,90 minutes,No",1,13076,2021-10-07 15:13:44,2028
580fee689c444f0001cfa03a,ma_choice_v2_pilot1,"",26,0,-1,-1,"Hardwood Floors,Climate of Area,Proximity to Parks,Noise Pollution,Size of Home,Fireplace,Reputation of Closest School","No,Bad,10 min,High,969 sq feet,No,Very Good","No,Very Bad,20 min,Medium,947 sq feet,No,Very Good",0,27484,2021-10-07 15:13:50,2029
5df6304773d724428a9cff45,ma_choice_v2_pilot1,"",6,1,-1,-1,"Washer/Dryer,Proximity to Cafes/Restaurants,Climate of Area,Number of Bedrooms,Age of Building,Central AC,Hardwood Floors","Yes,5 min,Good,1,New,Yes,Yes","Yes,10 min,Moderate,1,Old,Yes,Yes",0,8629,2021-10-07 15:13:50,2030
5a57c541acc75b00017a2a27,ma_choice_v2_pilot1,"",1,0,-1,-1,"Size of Home,Washer/Dryer,Fireplace,Size of Garage,Proximity to Parks,Noise Pollution,Freshly Painted Exterior","1302 sq feet,No,No,Large,10 min,Low,No","1784 sq feet,No,Yes,Small,10 min,Low,No",1,13193,2021-10-07 15:13:50,2031
5e02204b2fc478db652b6466,ma_choice_v2_pilot1,"",47,0,-1,-1,"Climate of Area,Fireplace,Noise Pollution,Hardwood Floors,Age of Building,Proximity to Waterfront/Beaches,Size of Yard","Bad,No,Medium,Yes,Medium,30 min,Small","Bad,Yes,Medium,No,Old,10 min,Small",0,7432,2021-10-07 15:13:51,2032
5e02204b2fc478db652b6466,ma_choice_v2_pilot1,"",48,0,-1,-1,"Proximity to Waterfront/Beaches,Amount of Crime in Neighborhood,Proximity to Parks,Age of Building,Climate of Area,Hardwood Floors,Amount of Natural Light","60 min,Very Low,10 min,Medium,Moderate,Yes,A little natural light","120 minutes,Low,20 min,New,Good,Yes,No natural light",0,7554,2021-10-07 15:13:59,2033
5df6304773d724428a9cff45,ma_choice_v2_pilot1,"",7,1,-1,-1,"Amount of Natural Light,Size of Garage,Hardwood Floors,Proximity to Cafes/Restaurants,Size of Home,Amount of Crime in Neighborhood,Size of Yard","A little natural light,None,No,10 min,456 sq feet,Low,Medium","No natural light,Medium,No,20 min,1875 sq feet,Very High,Large",0,11806,2021-10-07 15:14:03,2034
5a57c541acc75b00017a2a27,ma_choice_v2_pilot1,"",2,0,-1,-1,"Number of Bedrooms,Proximity to Cafes/Restaurants,Proximity to Parks,Noise Pollution,Freshly Painted Exterior,Size of Yard,Amount of Crime in Neighborhood","1,10 min,20 min,Low,No,None,Low","3,20 min,20 min,High,Yes,Medium,High",1,16044,2021-10-07 15:14:07,2035
5e02204b2fc478db652b6466,ma_choice_v2_pilot1,"",49,0,-1,-1,"Reputation of Closest School,Size of Garage,Number of Bedrooms,Size of Yard,Noise Pollution,Size of Home,Freshly Painted Exterior","Bad,Small,1,Large,Medium,1606 sq feet,Yes","Good,Medium,1,Small,High,1201 sq feet,Yes",0,7398,2021-10-07 15:14:08,2036
5df6304773d724428a9cff45,ma_choice_v2_pilot1,"",8,1,-1,-1,"Amount of Crime in Neighborhood,Central AC,Reputation of Closest School,Hardwood Floors,Climate of Area,Amount of Natural Light,Washer/Dryer","High,No,Moderate,No,Very Good,A lot of natural light,No","Very High,No,Very Good,No,Moderate,A little natural light,No",0,10905,2021-10-07 15:14:15,2037
5e02204b2fc478db652b6466,ma_choice_v2_pilot1,"",50,0,-1,-1,"Amount of Natural Light,Size of Home,Age of Building,Amount of Crime in Neighborhood,Hardwood Floors,Number of Bedrooms,Size of Yard","Moderate natural light,911 sq feet,Old,High,No,2,None","A little natural light,706 sq feet,New,Very High,Yes,1,Small",0,8008,2021-10-07 15:14:17,2038
5e02204b2fc478db652b6466,ma_choice_v2_pilot1,"",51,0,-1,-1,"Fireplace,Number of Bedrooms,Proximity to Parks,Size of Home,Central AC,Age of Building,Noise Pollution","Yes,1,5 min,653 sq feet,Yes,Old,Low","No,2,5 min,1409 sq feet,Yes,Old,Medium",0,8211,2021-10-07 15:14:26,2039
5df6304773d724428a9cff45,ma_choice_v2_pilot1,"",9,1,-1,-1,"Size of Garage,Number of Bedrooms,Amount of Natural Light,Reputation of Closest School,Age of Building,Amount of Crime in Neighborhood,Noise Pollution","Medium,1,No natural light,Bad,Medium,Very Low,Low","Large,2,A little natural light,Very Good,Medium,Very High,High",0,13494,2021-10-07 15:14:30,2040
5a57c541acc75b00017a2a27,ma_choice_v2_pilot1,"",3,0,-1,-1,"Fireplace,Washer/Dryer,Proximity to Waterfront/Beaches,Size of Home,Amount of Natural Light,Climate of Area,Freshly Painted Exterior","No,No,120 minutes,699 sq feet,A lot of natural light,Very Bad,No","No,Yes,90 minutes,665 sq feet,Moderate natural light,Very Bad,No",0,21692,2021-10-07 15:14:30,2041
